timestamp,accX,accY,accZ,ppg,spO2
2026-01-10 21:56:39.540,2014.0,1757.0,1473.0,5764.0,7582.0
2026-01-10 21:56:39.560,2014.64,1799.74,1516.18,5763.96,7581.3
2026-01-10 21:56:39.580,2015.28,1842.48,1559.36,5763.92,7580.6
2026-01-10 21:56:39.600,2015.92,1885.22,1602.54,5763.88,7579.9
2026-01-10 21:56:39.620,2016.56,1927.96,1645.72,5763.84,7579.2
2026-01-10 21:56:39.640,2017.2,1970.7,1688.9,5763.8,7578.5
2026-01-10 21:56:39.660,2017.84,2013.44,1732.08,5763.76,7577.8
2026-01-10 21:56:39.680,2018.48,2056.18,1775.26,5763.72,7577.1
2026-01-10 21:56:39.700,2019.12,2098.92,1818.44,5763.68,7576.4
2026-01-10 21:56:39.720,2019.76,2141.66,1861.62,5763.64,7575.7
2026-01-10 21:56:39.740,2020.4,2184.4,1904.8,5763.6,7575.0
2026-01-10 21:56:39.760,2021.04,2227.14,1947.98,5763.56,7574.3
2026-01-10 21:56:39.780,2021.68,2269.88,1991.1599999999999,5763.52,7573.6
2026-01-10 21:56:39.800,2022.32,2312.62,2034.3400000000001,5763.48,7572.9
2026-01-10 21:56:39.820,2022.96,2355.36,2077.52,5763.44,7572.2
2026-01-10 21:56:39.840,2023.6,2398.1,2120.7,5763.4,7571.5
2026-01-10 21:56:39.860,2024.24,2440.84,2163.88,5763.36,7570.8
2026-01-10 21:56:39.880,2024.88,2483.58,2207.06,5763.32,7570.1
2026-01-10 21:56:39.900,2025.52,2526.32,2250.24,5763.28,7569.4
2026-01-10 21:56:39.920,2026.16,2569.06,2293.42,5763.24,7568.7
2026-01-10 21:56:39.940,2026.8,2611.8,2336.6,5763.2,7568.0
2026-01-10 21:56:39.960,2027.44,2654.54,2379.7799999999997,5763.16,7567.3
2026-01-10 21:56:39.980,2028.08,2697.28,2422.96,5763.12,7566.6
2026-01-10 21:56:40.000,2028.72,2740.02,2466.14,5763.08,7565.9
2026-01-10 21:56:40.020,2029.36,2782.76,2509.3199999999997,5763.04,7565.2
2026-01-10 21:56:40.040,2030.0,2825.5,2552.5,5763.0,7564.5
2026-01-10 21:56:40.060,2030.64,2868.24,2595.6800000000003,5762.96,7563.8
2026-01-10 21:56:40.080,2031.28,2910.98,2638.8599999999997,5762.92,7563.1
2026-01-10 21:56:40.100,2031.92,2953.7200000000003,2682.04,5762.88,7562.4
2026-01-10 21:56:40.120,2032.56,2996.46,2725.2200000000003,5762.84,7561.7
2026-01-10 21:56:40.140,2033.2,3039.2,2768.4,5762.8,7561.0
2026-01-10 21:56:40.160,2033.84,3081.94,2811.58,5762.76,7560.3
2026-01-10 21:56:40.180,2034.48,3124.6800000000003,2854.76,5762.72,7559.6
2026-01-10 21:56:40.200,2035.12,3167.42,2897.94,5762.68,7558.9
2026-01-10 21:56:40.220,2035.76,3210.16,2941.12,5762.64,7558.2
2026-01-10 21:56:40.240,2036.4,3252.9,2984.3,5762.6,7557.5
2026-01-10 21:56:40.260,2037.04,3295.6400000000003,3027.48,5762.56,7556.8
2026-01-10 21:56:40.280,2037.68,3338.38,3070.66,5762.52,7556.1
2026-01-10 21:56:40.300,2038.32,3381.12,3113.84,5762.48,7555.4
2026-01-10 21:56:40.320,2038.96,3423.86,3157.02,5762.44,7554.7
2026-01-10 21:56:40.340,2039.6,3466.6000000000004,3200.2,5762.4,7554.0
2026-01-10 21:56:40.360,2040.24,3509.34,3243.38,5762.36,7553.3
2026-01-10 21:56:40.380,2040.88,3552.08,3286.56,5762.32,7552.6
2026-01-10 21:56:40.400,2041.52,3594.82,3329.74,5762.28,7551.9
2026-01-10 21:56:40.420,2042.16,3637.5600000000004,3372.92,5762.24,7551.2
2026-01-10 21:56:40.440,2042.8,3680.3,3416.1,5762.2,7550.5
2026-01-10 21:56:40.460,2043.44,3723.04,3459.2799999999997,5762.16,7549.8
2026-01-10 21:56:40.480,2044.08,3765.78,3502.46,5762.12,7549.1
2026-01-10 21:56:40.500,2044.72,3808.52,3545.64,5762.08,7548.4
2026-01-10 21:56:40.520,2045.36,3851.26,3588.82,5762.04,7547.7
2026-01-10 21:56:40.540,2046.0,3894.0,3632.0,5762.0,7547.0
2026-01-10 21:56:40.560,2008.1176470588234,3893.6862745098038,3588.4313725490197,5761.411764705882,7544.588235294118
2026-01-10 21:56:40.580,1970.235294117647,3893.372549019608,3544.8627450980393,5760.823529411765,7542.176470588235
2026-01-10 21:56:40.600,1932.3529411764705,3893.0588235294117,3501.294117647059,5760.235294117647,7539.764705882353
2026-01-10 21:56:40.620,1894.4705882352941,3892.7450980392155,3457.725490196078,5759.64705882353,7537.35294117647
2026-01-10 21:56:40.640,1856.5882352941176,3892.4313725490197,3414.156862745098,5759.058823529412,7534.941176470588
2026-01-10 21:56:40.660,1818.7058823529412,3892.1176470588234,3370.5882352941176,5758.470588235294,7532.529411764706
2026-01-10 21:56:40.680,1780.8235294117646,3891.8039215686276,3327.0196078431372,5757.882352941177,7530.117647058823
2026-01-10 21:56:40.700,1742.9411764705883,3891.4901960784314,3283.450980392157,5757.294117647059,7527.705882352941
2026-01-10 21:56:40.720,1705.0588235294117,3891.176470588235,3239.8823529411766,5756.705882352941,7525.294117647059
2026-01-10 21:56:40.740,1667.1764705882354,3890.8627450980393,3196.3137254901962,5756.117647058823,7522.882352941177
2026-01-10 21:56:40.760,1629.2941176470588,3890.549019607843,3152.745098039216,5755.529411764706,7520.470588235294
2026-01-10 21:56:40.780,1591.4117647058824,3890.235294117647,3109.176470588235,5754.941176470588,7518.058823529412
2026-01-10 21:56:40.800,1553.5294117647059,3889.921568627451,3065.607843137255,5754.35294117647,7515.64705882353
2026-01-10 21:56:40.820,1515.6470588235293,3889.607843137255,3022.0392156862745,5753.764705882353,7513.235294117647
2026-01-10 21:56:40.840,1477.764705882353,3889.294117647059,2978.470588235294,5753.176470588235,7510.823529411765
2026-01-10 21:56:40.860,1439.8823529411766,3888.9803921568628,2934.901960784314,5752.588235294118,7508.411764705882
2026-01-10 21:56:40.880,1402.0,3888.6666666666665,2891.333333333333,5752.0,7506.0
2026-01-10 21:56:40.900,1364.1176470588234,3888.3529411764707,2847.764705882353,5751.411764705882,7503.588235294118
2026-01-10 21:56:40.920,1326.235294117647,3888.0392156862745,2804.1960784313724,5750.823529411765,7501.176470588235
2026-01-10 21:56:40.940,1288.3529411764707,3887.725490196078,2760.627450980392,5750.235294117647,7498.764705882353
2026-01-10 21:56:40.960,1250.4705882352941,3887.4117647058824,2717.0588235294117,5749.64705882353,7496.35294117647
2026-01-10 21:56:40.980,1212.5882352941176,3887.098039215686,2673.4901960784314,5749.058823529412,7493.941176470588
2026-01-10 21:56:41.000,1174.7058823529412,3886.7843137254904,2629.921568627451,5748.470588235294,7491.529411764706
2026-01-10 21:56:41.020,1136.8235294117646,3886.470588235294,2586.3529411764703,5747.882352941177,7489.117647058823
2026-01-10 21:56:41.040,1098.9411764705883,3886.156862745098,2542.7843137254904,5747.294117647059,7486.705882352941
2026-01-10 21:56:41.060,1061.0588235294117,3885.843137254902,2499.2156862745096,5746.705882352941,7484.294117647059
2026-01-10 21:56:41.080,1023.1764705882352,3885.529411764706,2455.6470588235293,5746.117647058823,7481.882352941177
2026-01-10 21:56:41.100,985.2941176470588,3885.2156862745096,2412.078431372549,5745.529411764706,7479.470588235294
2026-01-10 21:56:41.120,947.4117647058824,3884.901960784314,2368.5098039215686,5744.941176470588,7477.058823529412
2026-01-10 21:56:41.140,909.5294117647059,3884.5882352941176,2324.9411764705883,5744.35294117647,7474.64705882353
2026-01-10 21:56:41.160,871.6470588235295,3884.274509803922,2281.3725490196075,5743.764705882353,7472.235294117647
2026-01-10 21:56:41.180,833.7647058823529,3883.9607843137255,2237.8039215686276,5743.176470588235,7469.823529411765
2026-01-10 21:56:41.200,795.8823529411764,3883.6470588235293,2194.235294117647,5742.588235294118,7467.411764705882
2026-01-10 21:56:41.220,758.0,3883.3333333333335,2150.6666666666665,5742.0,7465.0
2026-01-10 21:56:41.240,720.1176470588234,3883.0196078431372,2107.098039215686,5741.411764705882,7462.588235294118
2026-01-10 21:56:41.260,682.2352941176471,3882.705882352941,2063.529411764706,5740.823529411765,7460.176470588235
2026-01-10 21:56:41.280,644.3529411764705,3882.392156862745,2019.9607843137255,5740.235294117647,7457.764705882353
2026-01-10 21:56:41.300,606.4705882352941,3882.078431372549,1976.392156862745,5739.64705882353,7455.35294117647
2026-01-10 21:56:41.320,568.5882352941176,3881.764705882353,1932.8235294117646,5739.058823529412,7452.941176470588
2026-01-10 21:56:41.340,530.7058823529412,3881.450980392157,1889.2549019607843,5738.470588235294,7450.529411764706
2026-01-10 21:56:41.360,492.82352941176464,3881.1372549019607,1845.6862745098038,5737.882352941177,7448.117647058823
2026-01-10 21:56:41.380,454.9411764705883,3880.823529411765,1802.1176470588234,5737.294117647059,7445.705882352941
2026-01-10 21:56:41.400,417.0588235294117,3880.5098039215686,1758.549019607843,5736.705882352941,7443.294117647059
2026-01-10 21:56:41.420,379.17647058823536,3880.1960784313724,1714.9803921568628,5736.117647058823,7440.882352941177
2026-01-10 21:56:41.440,341.2941176470588,3879.8823529411766,1671.4117647058822,5735.529411764706,7438.470588235294
2026-01-10 21:56:41.460,303.41176470588243,3879.5686274509803,1627.8431372549019,5734.941176470588,7436.058823529412
2026-01-10 21:56:41.480,265.52941176470586,3879.2549019607845,1584.2745098039215,5734.35294117647,7433.64705882353
2026-01-10 21:56:41.500,227.64705882352928,3878.9411764705883,1540.705882352941,5733.764705882353,7431.235294117647
2026-01-10 21:56:41.520,189.76470588235293,3878.627450980392,1497.1372549019607,5733.176470588235,7428.823529411765
2026-01-10 21:56:41.540,151.88235294117635,3878.3137254901962,1453.5686274509803,5732.588235294118,7426.411764705882
2026-01-10 21:56:41.560,114.0,3878.0,1410.0,5732.0,7424.0
2026-01-10 21:56:41.580,187.95833333333331,3839.4375,1457.7708333333333,5728.382978723404,7419.595744680851
2026-01-10 21:56:41.600,261.91666666666663,3800.875,1505.5416666666667,5724.765957446809,7415.191489361702
2026-01-10 21:56:41.620,335.875,3762.3125,1553.3125,5721.148936170212,7410.787234042553
2026-01-10 21:56:41.640,409.8333333333333,3723.75,1601.0833333333333,5717.531914893617,7406.382978723404
2026-01-10 21:56:41.660,483.79166666666663,3685.1875,1648.8541666666667,5713.914893617021,7401.978723404255
2026-01-10 21:56:41.680,557.75,3646.625,1696.625,5710.297872340426,7397.574468085107
2026-01-10 21:56:41.700,631.7083333333333,3608.0625,1744.3958333333335,5706.68085106383,7393.170212765957
2026-01-10 21:56:41.720,705.6666666666666,3569.5,1792.1666666666667,5703.063829787234,7388.765957446809
2026-01-10 21:56:41.740,779.625,3530.9375,1839.9375,5699.446808510638,7384.36170212766
2026-01-10 21:56:41.760,853.5833333333333,3492.375,1887.7083333333335,5695.829787234043,7379.95744680851
2026-01-10 21:56:41.780,927.5416666666666,3453.8125,1935.4791666666667,5692.212765957447,7375.553191489362
2026-01-10 21:56:41.800,1001.5,3415.25,1983.25,5688.595744680851,7371.148936170212
2026-01-10 21:56:41.820,1075.4583333333333,3376.6875,2031.0208333333335,5684.978723404255,7366.744680851064
2026-01-10 21:56:41.840,1149.4166666666665,3338.125,2078.791666666667,5681.36170212766,7362.340425531915
2026-01-10 21:56:41.860,1223.375,3299.5625,2126.5625,5677.744680851064,7357.936170212766
2026-01-10 21:56:41.880,1297.3333333333333,3261.0,2174.3333333333335,5674.127659574468,7353.531914893617
2026-01-10 21:56:41.900,1371.2916666666665,3222.4375,2222.104166666667,5670.510638297872,7349.127659574468
2026-01-10 21:56:41.920,1445.25,3183.875,2269.875,5666.893617021276,7344.723404255319
2026-01-10 21:56:41.940,1519.2083333333333,3145.3125,2317.6458333333335,5663.276595744681,7340.319148936171
2026-01-10 21:56:41.960,1593.1666666666665,3106.75,2365.416666666667,5659.659574468085,7335.914893617021
2026-01-10 21:56:41.980,1667.125,3068.1875,2413.1875,5656.04255319149,7331.510638297872
2026-01-10 21:56:42.000,1741.0833333333333,3029.625,2460.9583333333335,5652.425531914893,7327.106382978724
2026-01-10 21:56:42.020,1815.0416666666665,2991.0625,2508.729166666667,5648.808510638298,7322.702127659574
2026-01-10 21:56:42.040,1889.0,2952.5,2556.5,5645.191489361702,7318.297872340426
2026-01-10 21:56:42.060,1962.9583333333333,2913.9375,2604.2708333333335,5641.574468085107,7313.893617021276
2026-01-10 21:56:42.080,2036.9166666666665,2875.375,2652.041666666667,5637.95744680851,7309.489361702128
2026-01-10 21:56:42.100,2110.875,2836.8125,2699.8125,5634.340425531915,7305.085106382979
2026-01-10 21:56:42.120,2184.833333333333,2798.25,2747.5833333333335,5630.723404255319,7300.68085106383
2026-01-10 21:56:42.140,2258.7916666666665,2759.6875,2795.354166666667,5627.106382978724,7296.276595744681
2026-01-10 21:56:42.160,2332.75,2721.125,2843.125,5623.489361702128,7291.872340425532
2026-01-10 21:56:42.180,2406.708333333333,2682.5625,2890.8958333333335,5619.872340425532,7287.468085106383
2026-01-10 21:56:42.200,2480.6666666666665,2644.0,2938.666666666667,5616.255319148936,7283.063829787234
2026-01-10 21:56:42.220,2554.625,2605.4375,2986.4375,5612.63829787234,7278.659574468085
2026-01-10 21:56:42.240,2628.583333333333,2566.875,3034.2083333333335,5609.021276595745,7274.255319148936
2026-01-10 21:56:42.260,2702.5416666666665,2528.3125,3081.979166666667,5605.404255319149,7269.851063829788
2026-01-10 21:56:42.280,2776.5,2489.75,3129.75,5601.787234042553,7265.446808510638
2026-01-10 21:56:42.300,2850.458333333333,2451.1875,3177.5208333333335,5598.170212765957,7261.04255319149
2026-01-10 21:56:42.320,2924.4166666666665,2412.625,3225.291666666667,5594.553191489362,7256.63829787234
2026-01-10 21:56:42.340,2998.375,2374.0625,3273.0625,5590.936170212766,7252.234042553191
2026-01-10 21:56:42.360,3072.333333333333,2335.5,3320.8333333333335,5587.319148936171,7247.829787234043
2026-01-10 21:56:42.380,3146.2916666666665,2296.9375,3368.604166666667,5583.702127659574,7243.425531914893
2026-01-10 21:56:42.400,3220.25,2258.375,3416.375,5580.085106382979,7239.021276595745
2026-01-10 21:56:42.420,3294.208333333333,2219.8125,3464.1458333333335,5576.468085106383,7234.617021276596
2026-01-10 21:56:42.440,3368.1666666666665,2181.25,3511.916666666667,5572.851063829788,7230.212765957447
2026-01-10 21:56:42.460,3442.125,2142.6875,3559.6875,5569.234042553191,7225.808510638298
2026-01-10 21:56:42.480,3516.083333333333,2104.125,3607.4583333333335,5565.617021276596,7221.404255319149
2026-01-10 21:56:42.500,3590.0416666666665,2065.5625,3655.229166666667,5562.0,7217.0
2026-01-10 21:56:42.520,3664.0,2027.0,3703.0,5563.2962962962965,7217.277777777777
2026-01-10 21:56:42.540,3663.509433962264,2027.0,3664.7169811320755,5564.592592592592,7217.555555555556
2026-01-10 21:56:42.560,3663.0188679245284,2027.0,3626.433962264151,5565.888888888889,7217.833333333333
2026-01-10 21:56:42.580,3662.5283018867926,2027.0,3588.1509433962265,5567.185185185185,7218.111111111111
2026-01-10 21:56:42.600,3662.0377358490564,2027.0,3549.867924528302,5568.481481481482,7218.388888888889
2026-01-10 21:56:42.620,3661.5471698113206,2027.0,3511.5849056603774,5569.777777777777,7218.666666666667
2026-01-10 21:56:42.640,3661.056603773585,2027.0,3473.301886792453,5571.074074074074,7218.944444444444
2026-01-10 21:56:42.660,3660.566037735849,2027.0,3435.0188679245284,5572.37037037037,7219.222222222223
2026-01-10 21:56:42.680,3660.0754716981132,2027.0,3396.735849056604,5573.666666666667,7219.5
2026-01-10 21:56:42.700,3659.5849056603774,2027.0,3358.4528301886794,5574.962962962963,7219.777777777777
2026-01-10 21:56:42.720,3659.0943396226417,2027.0,3320.169811320755,5576.259259259259,7220.055555555556
2026-01-10 21:56:42.740,3658.603773584906,2027.0,3281.8867924528304,5577.555555555556,7220.333333333333
2026-01-10 21:56:42.760,3658.1132075471696,2027.0,3243.603773584906,5578.851851851852,7220.611111111111
2026-01-10 21:56:42.780,3657.622641509434,2027.0,3205.3207547169814,5580.148148148148,7220.888888888889
2026-01-10 21:56:42.800,3657.132075471698,2027.0,3167.037735849057,5581.444444444444,7221.166666666667
2026-01-10 21:56:42.820,3656.6415094339623,2027.0,3128.7547169811323,5582.740740740741,7221.444444444444
2026-01-10 21:56:42.840,3656.1509433962265,2027.0,3090.471698113208,5584.037037037037,7221.722222222223
2026-01-10 21:56:42.860,3655.6603773584907,2027.0,3052.1886792452833,5585.333333333333,7222.0
2026-01-10 21:56:42.880,3655.169811320755,2027.0,3013.905660377359,5586.62962962963,7222.277777777777
2026-01-10 21:56:42.900,3654.6792452830186,2027.0,2975.6226415094343,5587.925925925926,7222.555555555556
2026-01-10 21:56:42.920,3654.188679245283,2027.0,2937.33962264151,5589.222222222223,7222.833333333333
2026-01-10 21:56:42.940,3653.698113207547,2027.0,2899.056603773585,5590.518518518518,7223.111111111111
2026-01-10 21:56:42.960,3653.2075471698113,2027.0,2860.7735849056603,5591.814814814815,7223.388888888889
2026-01-10 21:56:42.980,3652.7169811320755,2027.0,2822.490566037736,5593.111111111111,7223.666666666667
2026-01-10 21:56:43.000,3652.2264150943397,2027.0,2784.2075471698113,5594.407407407408,7223.944444444444
2026-01-10 21:56:43.020,3651.735849056604,2027.0,2745.9245283018868,5595.7037037037035,7224.222222222223
2026-01-10 21:56:43.040,3651.245283018868,2027.0,2707.6415094339623,5597.0,7224.5
2026-01-10 21:56:43.060,3650.754716981132,2027.0,2669.3584905660377,5598.2962962962965,7224.777777777777
2026-01-10 21:56:43.080,3650.264150943396,2027.0,2631.0754716981132,5599.592592592592,7225.055555555556
2026-01-10 21:56:43.100,3649.7735849056603,2027.0,2592.7924528301887,5600.888888888889,7225.333333333333
2026-01-10 21:56:43.120,3649.2830188679245,2027.0,2554.509433962264,5602.185185185185,7225.611111111111
2026-01-10 21:56:43.140,3648.7924528301887,2027.0,2516.2264150943397,5603.481481481482,7225.888888888889
2026-01-10 21:56:43.160,3648.301886792453,2027.0,2477.943396226415,5604.777777777777,7226.166666666667
2026-01-10 21:56:43.180,3647.811320754717,2027.0,2439.6603773584907,5606.074074074074,7226.444444444444
2026-01-10 21:56:43.200,3647.3207547169814,2027.0,2401.377358490566,5607.37037037037,7226.722222222223
2026-01-10 21:56:43.220,3646.830188679245,2027.0,2363.0943396226417,5608.666666666667,7227.0
2026-01-10 21:56:43.240,3646.3396226415093,2027.0,2324.811320754717,5609.962962962963,7227.277777777777
2026-01-10 21:56:43.260,3645.8490566037735,2027.0,2286.5283018867926,5611.259259259259,7227.555555555556
2026-01-10 21:56:43.280,3645.3584905660377,2027.0,2248.245283018868,5612.555555555556,7227.833333333333
2026-01-10 21:56:43.300,3644.867924528302,2027.0,2209.9622641509436,5613.851851851852,7228.111111111111
2026-01-10 21:56:43.320,3644.377358490566,2027.0,2171.679245283019,5615.148148148148,7228.388888888889
2026-01-10 21:56:43.340,3643.8867924528304,2027.0,2133.396226415094,5616.444444444444,7228.666666666667
2026-01-10 21:56:43.360,3643.396226415094,2027.0,2095.1132075471696,5617.740740740741,7228.944444444444
2026-01-10 21:56:43.380,3642.9056603773583,2027.0,2056.830188679245,5619.037037037037,7229.222222222223
2026-01-10 21:56:43.400,3642.4150943396226,2027.0,2018.5471698113208,5620.333333333333,7229.5
2026-01-10 21:56:43.420,3641.9245283018868,2027.0,1980.2641509433963,5621.62962962963,7229.777777777777
2026-01-10 21:56:43.440,3641.433962264151,2027.0,1941.9811320754718,5622.925925925926,7230.055555555556
2026-01-10 21:56:43.460,3640.943396226415,2027.0,1903.6981132075473,5624.222222222223,7230.333333333333
2026-01-10 21:56:43.480,3640.4528301886794,2027.0,1865.4150943396228,5625.518518518518,7230.611111111111
2026-01-10 21:56:43.500,3639.9622641509436,2027.0,1827.1320754716983,5626.814814814815,7230.888888888889
2026-01-10 21:56:43.520,3639.4716981132074,2027.0,1788.8490566037738,5628.111111111111,7231.166666666667
2026-01-10 21:56:43.540,3638.9811320754716,2027.0,1750.5660377358492,5629.407407407408,7231.444444444444
2026-01-10 21:56:43.560,3638.490566037736,2027.0,1712.2830188679247,5630.7037037037035,7231.722222222223
2026-01-10 21:56:43.580,3638.0,2027.0,1674.0,5632.0,7232.0
2026-01-10 21:56:43.600,3637.9583333333335,2026.4791666666667,1716.3958333333333,5632.020833333333,7231.75
2026-01-10 21:56:43.620,3637.9166666666665,2025.9583333333333,1758.7916666666667,5632.041666666667,7231.5
2026-01-10 21:56:43.640,3637.875,2025.4375,1801.1875,5632.0625,7231.25
2026-01-10 21:56:43.660,3637.8333333333335,2024.9166666666667,1843.5833333333333,5632.083333333333,7231.0
2026-01-10 21:56:43.680,3637.7916666666665,2024.3958333333333,1885.9791666666667,5632.104166666667,7230.75
2026-01-10 21:56:43.700,3637.75,2023.875,1928.375,5632.125,7230.5
2026-01-10 21:56:43.720,3637.7083333333335,2023.3541666666667,1970.7708333333335,5632.145833333333,7230.25
2026-01-10 21:56:43.740,3637.6666666666665,2022.8333333333333,2013.1666666666667,5632.166666666667,7230.0
2026-01-10 21:56:43.760,3637.625,2022.3125,2055.5625,5632.1875,7229.75
2026-01-10 21:56:43.780,3637.5833333333335,2021.7916666666667,2097.9583333333335,5632.208333333333,7229.5
2026-01-10 21:56:43.800,3637.5416666666665,2021.2708333333333,2140.3541666666665,5632.229166666667,7229.25
2026-01-10 21:56:43.820,3637.5,2020.75,2182.75,5632.25,7229.0
2026-01-10 21:56:43.840,3637.4583333333335,2020.2291666666667,2225.1458333333335,5632.270833333333,7228.75
2026-01-10 21:56:43.860,3637.4166666666665,2019.7083333333333,2267.541666666667,5632.291666666667,7228.5
2026-01-10 21:56:43.880,3637.375,2019.1875,2309.9375,5632.3125,7228.25
2026-01-10 21:56:43.900,3637.3333333333335,2018.6666666666667,2352.3333333333335,5632.333333333333,7228.0
2026-01-10 21:56:43.920,3637.2916666666665,2018.1458333333333,2394.729166666667,5632.354166666667,7227.75
2026-01-10 21:56:43.940,3637.25,2017.625,2437.125,5632.375,7227.5
2026-01-10 21:56:43.960,3637.2083333333335,2017.1041666666667,2479.5208333333335,5632.395833333333,7227.25
2026-01-10 21:56:43.980,3637.1666666666665,2016.5833333333333,2521.916666666667,5632.416666666667,7227.0
2026-01-10 21:56:44.000,3637.125,2016.0625,2564.3125,5632.4375,7226.75
2026-01-10 21:56:44.020,3637.0833333333335,2015.5416666666667,2606.7083333333335,5632.458333333333,7226.5
2026-01-10 21:56:44.040,3637.0416666666665,2015.0208333333333,2649.104166666667,5632.479166666667,7226.25
2026-01-10 21:56:44.060,3637.0,2014.5,2691.5,5632.5,7226.0
2026-01-10 21:56:44.080,3636.9583333333335,2013.9791666666667,2733.8958333333335,5632.520833333333,7225.75
2026-01-10 21:56:44.100,3636.9166666666665,2013.4583333333333,2776.291666666667,5632.541666666667,7225.5
2026-01-10 21:56:44.120,3636.875,2012.9375,2818.6875,5632.5625,7225.25
2026-01-10 21:56:44.140,3636.8333333333335,2012.4166666666667,2861.0833333333335,5632.583333333333,7225.0
2026-01-10 21:56:44.160,3636.7916666666665,2011.8958333333333,2903.479166666667,5632.604166666667,7224.75
2026-01-10 21:56:44.180,3636.75,2011.375,2945.875,5632.625,7224.5
2026-01-10 21:56:44.200,3636.7083333333335,2010.8541666666667,2988.2708333333335,5632.645833333333,7224.25
2026-01-10 21:56:44.220,3636.6666666666665,2010.3333333333333,3030.666666666667,5632.666666666667,7224.0
2026-01-10 21:56:44.240,3636.625,2009.8125,3073.0625,5632.6875,7223.75
2026-01-10 21:56:44.260,3636.5833333333335,2009.2916666666667,3115.4583333333335,5632.708333333333,7223.5
2026-01-10 21:56:44.280,3636.5416666666665,2008.7708333333333,3157.854166666667,5632.729166666667,7223.25
2026-01-10 21:56:44.300,3636.5,2008.25,3200.25,5632.75,7223.0
2026-01-10 21:56:44.320,3636.4583333333335,2007.7291666666667,3242.6458333333335,5632.770833333333,7222.75
2026-01-10 21:56:44.340,3636.4166666666665,2007.2083333333333,3285.041666666667,5632.791666666667,7222.5
2026-01-10 21:56:44.360,3636.375,2006.6875,3327.4375,5632.8125,7222.25
2026-01-10 21:56:44.380,3636.3333333333335,2006.1666666666667,3369.8333333333335,5632.833333333333,7222.0
2026-01-10 21:56:44.400,3636.2916666666665,2005.6458333333333,3412.229166666667,5632.854166666667,7221.75
2026-01-10 21:56:44.420,3636.25,2005.125,3454.625,5632.875,7221.5
2026-01-10 21:56:44.440,3636.2083333333335,2004.6041666666667,3497.0208333333335,5632.895833333333,7221.25
2026-01-10 21:56:44.460,3636.1666666666665,2004.0833333333333,3539.416666666667,5632.916666666667,7221.0
2026-01-10 21:56:44.480,3636.125,2003.5625,3581.8125,5632.9375,7220.75
2026-01-10 21:56:44.500,3636.0833333333335,2003.0416666666667,3624.2083333333335,5632.958333333333,7220.5
2026-01-10 21:56:44.520,3636.0416666666665,2002.5208333333333,3666.604166666667,5632.979166666667,7220.25
2026-01-10 21:56:44.540,3636.0,2002.0,3709.0,5633.0,7220.0
