accX,accY,accZ
3933.0,77.0,-1632.0
3892.9795918367345,76.75510204081633,-1587.3469387755101
3852.9591836734694,76.51020408163265,-1542.6938775510205
3812.938775510204,76.26530612244898,-1498.0408163265306
3772.918367346939,76.0204081632653,-1453.3877551020407
3732.8979591836733,75.77551020408163,-1408.734693877551
3692.877551020408,75.53061224489795,-1364.0816326530612
3652.8571428571427,75.28571428571429,-1319.4285714285716
3612.8367346938776,75.04081632653062,-1274.7755102040817
3572.816326530612,74.79591836734694,-1230.1224489795918
3532.795918367347,74.55102040816327,-1185.4693877551022
3492.7755102040815,74.3061224489796,-1140.8163265306123
3452.7551020408164,74.06122448979592,-1096.1632653061224
3412.734693877551,73.81632653061224,-1051.5102040816328
3372.714285714286,73.57142857142857,-1006.8571428571429
3332.6938775510203,73.3265306122449,-962.204081632653
3292.673469387755,73.08163265306122,-917.5510204081633
3252.6530612244896,72.83673469387755,-872.8979591836735
3212.6326530612246,72.59183673469389,-828.2448979591836
3172.612244897959,72.34693877551021,-783.5918367346939
3132.591836734694,72.10204081632654,-738.9387755102041
3092.5714285714284,71.85714285714286,-694.2857142857142
3052.5510204081634,71.61224489795919,-649.6326530612245
3012.530612244898,71.36734693877551,-604.9795918367347
2972.5102040816328,71.12244897959184,-560.3265306122448
2932.4897959183672,70.87755102040816,-515.6734693877552
2892.4693877551017,70.63265306122449,-471.0204081632653
2852.4489795918366,70.38775510204081,-426.3673469387754
2812.4285714285716,70.14285714285714,-381.7142857142858
2772.408163265306,69.89795918367346,-337.0612244897959
2732.3877551020405,69.65306122448979,-292.40816326530603
2692.3673469387754,69.40816326530613,-247.75510204081638
2652.3469387755104,69.16326530612245,-203.1020408163265
2612.326530612245,68.91836734693878,-158.44897959183663
2572.3061224489793,68.6734693877551,-113.79591836734699
2532.285714285714,68.42857142857143,-69.14285714285711
2492.265306122449,68.18367346938776,-24.489795918367236
2452.2448979591836,67.93877551020408,20.163265306122412
2412.224489795918,67.6938775510204,64.81632653061229
2372.204081632653,67.44897959183673,109.46938775510216
2332.183673469388,67.20408163265306,154.1224489795918
2292.1632653061224,66.95918367346938,198.77551020408168
2252.142857142857,66.71428571428572,243.42857142857156
2212.122448979592,66.46938775510205,288.0816326530612
2172.1020408163267,66.22448979591837,332.7346938775511
2132.081632653061,65.9795918367347,377.38775510204096
2092.0612244897957,65.73469387755102,422.0408163265306
2052.0408163265306,65.48979591836735,466.69387755102025
2012.020408163265,65.24489795918367,511.34693877551035
1972.0,65.0,556.0
1971.38,25.880000000000003,513.44
1970.76,-13.239999999999995,470.88
1970.14,-52.359999999999985,428.32
1969.52,-91.47999999999999,385.76
1968.9,-130.6,343.2
1968.28,-169.71999999999997,300.64
1967.66,-208.83999999999997,258.08
1967.04,-247.95999999999998,215.51999999999998
1966.42,-287.08,172.95999999999998
1965.8,-326.2,130.39999999999998
1965.18,-365.32,87.83999999999997
1964.56,-404.43999999999994,45.27999999999997
1963.94,-443.55999999999995,2.7200000000000273
1963.32,-482.67999999999995,-39.84000000000003
1962.7,-521.8,-82.40000000000009
1962.08,-560.92,-124.96000000000004
1961.46,-600.04,-167.51999999999998
1960.84,-639.16,-210.08000000000004
1960.22,-678.28,-252.6400000000001
1959.6,-717.4,-295.20000000000005
1958.98,-756.52,-337.76
1958.36,-795.64,-380.32000000000005
1957.74,-834.76,-422.8800000000001
1957.12,-873.8799999999999,-465.44000000000005
1956.5,-912.9999999999999,-508.0
1955.88,-952.1199999999999,-550.56
1955.26,-991.24,-593.1200000000001
1954.64,-1030.36,-635.6800000000001
1954.02,-1069.48,-678.24
1953.4,-1108.6,-720.8000000000002
1952.78,-1147.72,-763.3600000000001
1952.16,-1186.84,-805.9200000000001
1951.54,-1225.9599999999998,-848.48
1950.92,-1265.08,-891.04
1950.3,-1304.1999999999998,-933.6000000000001
1949.68,-1343.32,-976.1600000000001
1949.06,-1382.4399999999998,-1018.72
1948.44,-1421.56,-1061.2800000000002
1947.82,-1460.6799999999998,-1103.8400000000001
1947.2,-1499.8,-1146.4
1946.58,-1538.9199999999998,-1188.96
1945.96,-1578.04,-1231.52
1945.34,-1617.1599999999999,-1274.0800000000002
1944.72,-1656.28,-1316.64
1944.1,-1695.3999999999999,-1359.2
1943.48,-1734.52,-1401.7600000000002
1942.86,-1773.6399999999999,-1444.3200000000002
1942.24,-1812.7599999999998,-1486.88
1941.62,-1851.8799999999999,-1529.44
1941.0,-1891.0,-1572.0
1980.82,-1890.98,-1572.94
2020.64,-1890.96,-1573.88
2060.46,-1890.94,-1574.82
2100.28,-1890.92,-1575.76
2140.1,-1890.9,-1576.7
2179.92,-1890.88,-1577.64
2219.74,-1890.86,-1578.58
2259.56,-1890.84,-1579.52
2299.38,-1890.82,-1580.46
2339.2,-1890.8,-1581.4
2379.02,-1890.78,-1582.34
2418.84,-1890.76,-1583.28
2458.66,-1890.74,-1584.22
2498.48,-1890.72,-1585.16
2538.3,-1890.7,-1586.1
2578.12,-1890.68,-1587.04
2617.94,-1890.66,-1587.98
2657.76,-1890.64,-1588.92
2697.58,-1890.62,-1589.86
2737.4,-1890.6,-1590.8
2777.2200000000003,-1890.58,-1591.74
2817.04,-1890.56,-1592.68
2856.86,-1890.54,-1593.62
2896.6800000000003,-1890.52,-1594.56
2936.5,-1890.5,-1595.5
2976.3199999999997,-1890.48,-1596.44
3016.1400000000003,-1890.46,-1597.38
3055.96,-1890.44,-1598.32
3095.7799999999997,-1890.42,-1599.26
3135.6,-1890.4,-1600.2
3175.42,-1890.38,-1601.14
3215.24,-1890.36,-1602.08
3255.06,-1890.34,-1603.02
3294.88,-1890.32,-1603.96
3334.7,-1890.3,-1604.9
3374.52,-1890.28,-1605.84
3414.34,-1890.26,-1606.78
3454.16,-1890.24,-1607.72
3493.98,-1890.22,-1608.66
3533.8,-1890.2,-1609.6
3573.62,-1890.18,-1610.54
3613.44,-1890.16,-1611.48
3653.26,-1890.14,-1612.42
3693.08,-1890.12,-1613.36
3732.9,-1890.1,-1614.3
3772.7200000000003,-1890.08,-1615.24
3812.54,-1890.06,-1616.18
3852.36,-1890.04,-1617.12
3892.1800000000003,-1890.02,-1618.06
3932.0,-1890.0,-1619.0
3932.6938775510203,-1889.469387755102,-1619.5714285714287
3933.387755102041,-1888.938775510204,-1620.142857142857
3934.081632653061,-1888.408163265306,-1620.7142857142858
3934.7755102040815,-1887.8775510204082,-1621.2857142857142
3935.469387755102,-1887.3469387755101,-1621.857142857143
3936.1632653061224,-1886.8163265306123,-1622.4285714285713
3936.8571428571427,-1886.2857142857142,-1623.0
3937.5510204081634,-1885.7551020408164,-1623.5714285714287
3938.2448979591836,-1885.2244897959183,-1624.142857142857
3938.938775510204,-1884.6938775510205,-1624.7142857142858
3939.6326530612246,-1884.1632653061224,-1625.2857142857142
3940.326530612245,-1883.6326530612246,-1625.857142857143
3941.0204081632655,-1883.1020408163265,-1626.4285714285713
3941.714285714286,-1882.5714285714287,-1627.0
3942.408163265306,-1882.0408163265306,-1627.5714285714287
3943.1020408163267,-1881.5102040816328,-1628.142857142857
3943.795918367347,-1880.9795918367347,-1628.7142857142858
3944.4897959183672,-1880.4489795918366,-1629.2857142857142
3945.183673469388,-1879.9183673469388,-1629.857142857143
3945.877551020408,-1879.3877551020407,-1630.4285714285713
3946.5714285714284,-1878.857142857143,-1631.0
3947.265306122449,-1878.3265306122448,-1631.5714285714287
3947.9591836734694,-1877.795918367347,-1632.142857142857
3948.6530612244896,-1877.265306122449,-1632.7142857142858
3949.3469387755104,-1876.734693877551,-1633.2857142857142
3950.0408163265306,-1876.204081632653,-1633.857142857143
3950.734693877551,-1875.6734693877552,-1634.4285714285713
3951.4285714285716,-1875.142857142857,-1635.0
3952.122448979592,-1874.6122448979593,-1635.5714285714287
3952.816326530612,-1874.0816326530612,-1636.142857142857
3953.5102040816328,-1873.5510204081634,-1636.7142857142858
3954.204081632653,-1873.0204081632653,-1637.2857142857142
3954.8979591836733,-1872.4897959183672,-1637.857142857143
3955.591836734694,-1871.9591836734694,-1638.4285714285713
3956.285714285714,-1871.4285714285713,-1639.0
3956.9795918367345,-1870.8979591836735,-1639.5714285714287
3957.673469387755,-1870.3673469387754,-1640.142857142857
3958.3673469387754,-1869.8367346938776,-1640.7142857142858
3959.061224489796,-1869.3061224489795,-1641.2857142857142
3959.7551020408164,-1868.7755102040817,-1641.857142857143
3960.4489795918366,-1868.2448979591836,-1642.4285714285713
3961.1428571428573,-1867.7142857142858,-1643.0
3961.8367346938776,-1867.1836734693877,-1643.5714285714287
3962.530612244898,-1866.6530612244899,-1644.142857142857
3963.2244897959185,-1866.1224489795918,-1644.7142857142858
3963.918367346939,-1865.591836734694,-1645.2857142857142
3964.612244897959,-1865.061224489796,-1645.857142857143
3965.3061224489797,-1864.530612244898,-1646.4285714285713
3966.0,-1864.0,-1647.0
3965.7884615384614,-1863.2692307692307,-1645.0
3965.576923076923,-1862.5384615384614,-1643.0
3965.3653846153848,-1861.8076923076924,-1641.0
3965.153846153846,-1861.076923076923,-1639.0
3964.9423076923076,-1860.3461538461538,-1637.0
3964.730769230769,-1859.6153846153845,-1635.0
3964.519230769231,-1858.8846153846155,-1633.0
3964.3076923076924,-1858.1538461538462,-1631.0
3964.096153846154,-1857.423076923077,-1629.0
3963.8846153846152,-1856.6923076923076,-1627.0
3963.673076923077,-1855.9615384615386,-1625.0
3963.4615384615386,-1855.2307692307693,-1623.0
3963.25,-1854.5,-1621.0
3963.0384615384614,-1853.7692307692307,-1619.0
3962.826923076923,-1853.0384615384614,-1617.0
3962.6153846153848,-1852.3076923076924,-1615.0
3962.403846153846,-1851.576923076923,-1613.0
3962.1923076923076,-1850.8461538461538,-1611.0
3961.980769230769,-1850.1153846153845,-1609.0
3961.769230769231,-1849.3846153846155,-1607.0
3961.5576923076924,-1848.6538461538462,-1605.0
3961.346153846154,-1847.923076923077,-1603.0
3961.1346153846152,-1847.1923076923076,-1601.0
3960.923076923077,-1846.4615384615386,-1599.0
3960.7115384615386,-1845.7307692307693,-1597.0
3960.5,-1845.0,-1595.0
3960.2884615384614,-1844.2692307692307,-1593.0
3960.076923076923,-1843.5384615384614,-1591.0
3959.8653846153848,-1842.8076923076924,-1589.0
3959.653846153846,-1842.076923076923,-1587.0
3959.4423076923076,-1841.3461538461538,-1585.0
3959.230769230769,-1840.6153846153845,-1583.0
3959.019230769231,-1839.8846153846155,-1581.0
3958.8076923076924,-1839.1538461538462,-1579.0
3958.596153846154,-1838.423076923077,-1577.0
3958.3846153846152,-1837.6923076923076,-1575.0
3958.173076923077,-1836.9615384615386,-1573.0
3957.9615384615386,-1836.2307692307693,-1571.0
3957.75,-1835.5,-1569.0
3957.5384615384614,-1834.7692307692307,-1567.0
3957.326923076923,-1834.0384615384614,-1565.0
3957.1153846153848,-1833.3076923076924,-1563.0
3956.903846153846,-1832.576923076923,-1561.0
3956.6923076923076,-1831.8461538461538,-1559.0
3956.480769230769,-1831.1153846153845,-1557.0
3956.269230769231,-1830.3846153846155,-1555.0
3956.0576923076924,-1829.6538461538462,-1553.0
3955.846153846154,-1828.923076923077,-1551.0
3955.6346153846152,-1828.1923076923076,-1549.0
3955.423076923077,-1827.4615384615386,-1547.0
3955.2115384615386,-1826.7307692307693,-1545.0
3955.0,-1826.0,-1543.0
3955.1632653061224,-1786.2448979591836,-1545.265306122449
3955.326530612245,-1746.4897959183672,-1547.530612244898
3955.4897959183672,-1706.734693877551,-1549.795918367347
3955.6530612244896,-1666.9795918367347,-1552.061224489796
3955.816326530612,-1627.2244897959183,-1554.3265306122448
3955.9795918367345,-1587.4693877551022,-1556.591836734694
3956.1428571428573,-1547.7142857142858,-1558.857142857143
3956.3061224489797,-1507.9591836734694,-1561.1224489795918
3956.469387755102,-1468.204081632653,-1563.3877551020407
3956.6326530612246,-1428.4489795918366,-1565.6530612244899
3956.795918367347,-1388.6938775510205,-1567.9183673469388
3956.9591836734694,-1348.938775510204,-1570.1836734693877
3957.122448979592,-1309.1836734693877,-1572.4489795918366
3957.285714285714,-1269.4285714285716,-1574.7142857142858
3957.4489795918366,-1229.6734693877552,-1576.9795918367347
3957.612244897959,-1189.9183673469388,-1579.2448979591836
3957.7755102040815,-1150.1632653061224,-1581.5102040816328
3957.938775510204,-1110.408163265306,-1583.7755102040817
3958.1020408163267,-1070.6530612244899,-1586.0408163265306
3958.265306122449,-1030.8979591836735,-1588.3061224489795
3958.4285714285716,-991.1428571428571,-1590.5714285714287
3958.591836734694,-951.3877551020408,-1592.8367346938776
3958.7551020408164,-911.6326530612246,-1595.1020408163265
3958.918367346939,-871.8775510204082,-1597.3673469387754
3959.081632653061,-832.1224489795918,-1599.6326530612246
3959.2448979591836,-792.3673469387754,-1601.8979591836735
3959.408163265306,-752.6122448979593,-1604.1632653061224
3959.5714285714284,-712.8571428571429,-1606.4285714285713
3959.734693877551,-673.1020408163265,-1608.6938775510205
3959.8979591836733,-633.3469387755104,-1610.9591836734694
3960.061224489796,-593.591836734694,-1613.2244897959183
3960.2244897959185,-553.8367346938776,-1615.4897959183672
3960.387755102041,-514.0816326530612,-1617.7551020408164
3960.5510204081634,-474.3265306122448,-1620.0204081632653
3960.714285714286,-434.57142857142867,-1622.2857142857142
3960.877551020408,-394.8163265306123,-1624.5510204081634
3961.0408163265306,-355.0612244897959,-1626.8163265306123
3961.204081632653,-315.30612244897975,-1629.0816326530612
3961.3673469387754,-275.55102040816337,-1631.3469387755101
3961.530612244898,-235.79591836734699,-1633.6122448979593
3961.6938775510203,-196.0408163265306,-1635.8775510204082
3961.8571428571427,-156.28571428571422,-1638.142857142857
3962.0204081632655,-116.53061224489807,-1640.408163265306
3962.183673469388,-76.77551020408168,-1642.6734693877552
3962.3469387755104,-37.0204081632653,-1644.938775510204
3962.5102040816328,2.7346938775508534,-1647.204081632653
3962.673469387755,42.489795918367236,-1649.4693877551022
3962.8367346938776,82.24489795918362,-1651.734693877551
3963.0,122.0,-1654.0
3962.18,81.2,-1651.68
3961.36,40.400000000000006,-1649.36
3960.54,-0.3999999999999915,-1647.04
3959.72,-41.19999999999999,-1644.72
3958.9,-82.0,-1642.4
3958.08,-122.79999999999998,-1640.08
3957.26,-163.59999999999997,-1637.76
3956.44,-204.39999999999998,-1635.44
3955.62,-245.2,-1633.12
3954.8,-286.0,-1630.8
3953.98,-326.79999999999995,-1628.48
3953.16,-367.59999999999997,-1626.16
3952.34,-408.4,-1623.84
3951.52,-449.19999999999993,-1621.52
3950.7,-490.0,-1619.2
3949.88,-530.8,-1616.88
3949.06,-571.5999999999999,-1614.56
3948.24,-612.4,-1612.24
3947.42,-653.1999999999999,-1609.92
3946.6,-694.0,-1607.6
3945.78,-734.8,-1605.28
3944.96,-775.5999999999999,-1602.96
3944.14,-816.4,-1600.64
3943.32,-857.1999999999999,-1598.32
3942.5,-897.9999999999999,-1596.0
3941.68,-938.8,-1593.68
3940.86,-979.5999999999999,-1591.36
3940.04,-1020.3999999999999,-1589.04
3939.22,-1061.1999999999998,-1586.72
3938.4,-1102.0,-1584.4
3937.58,-1142.8,-1582.08
3936.76,-1183.6,-1579.76
3935.94,-1224.3999999999999,-1577.44
3935.12,-1265.1999999999998,-1575.12
3934.3,-1306.0,-1572.8
3933.48,-1346.8,-1570.48
3932.66,-1387.6,-1568.16
3931.84,-1428.3999999999999,-1565.84
3931.02,-1469.1999999999998,-1563.52
3930.2,-1510.0,-1561.2
3929.38,-1550.8,-1558.88
3928.56,-1591.6,-1556.56
3927.74,-1632.3999999999999,-1554.24
3926.92,-1673.1999999999998,-1551.92
3926.1,-1713.9999999999998,-1549.6
3925.28,-1754.8,-1547.28
3924.46,-1795.6,-1544.96
3923.64,-1836.3999999999999,-1542.64
3922.82,-1877.1999999999998,-1540.32
3922.0,-1918.0,-1538.0
3881.530612244898,-1877.5510204081634,-1539.142857142857
3841.061224489796,-1837.1020408163265,-1540.2857142857142
3800.591836734694,-1796.6530612244899,-1541.4285714285713
3760.122448979592,-1756.204081632653,-1542.5714285714287
3719.6530612244896,-1715.7551020408164,-1543.7142857142858
3679.183673469388,-1675.3061224489795,-1544.857142857143
3638.714285714286,-1634.857142857143,-1546.0
3598.2448979591836,-1594.408163265306,-1547.142857142857
3557.7755102040815,-1553.9591836734694,-1548.2857142857142
3517.3061224489797,-1513.5102040816328,-1549.4285714285713
3476.8367346938776,-1473.061224489796,-1550.5714285714287
3436.3673469387754,-1432.6122448979593,-1551.7142857142858
3395.8979591836733,-1392.1632653061224,-1552.857142857143
3355.4285714285716,-1351.7142857142858,-1554.0
3314.9591836734694,-1311.2653061224491,-1555.142857142857
3274.4897959183672,-1270.8163265306123,-1556.2857142857142
3234.0204081632655,-1230.3673469387754,-1557.4285714285713
3193.5510204081634,-1189.9183673469388,-1558.5714285714287
3153.081632653061,-1149.4693877551022,-1559.7142857142858
3112.612244897959,-1109.0204081632653,-1560.857142857143
3072.142857142857,-1068.5714285714287,-1562.0
3031.673469387755,-1028.1224489795918,-1563.142857142857
2991.204081632653,-987.6734693877552,-1564.2857142857142
2950.734693877551,-947.2244897959184,-1565.4285714285713
2910.265306122449,-906.7755102040817,-1566.5714285714287
2869.795918367347,-866.326530612245,-1567.7142857142858
2829.326530612245,-825.8775510204082,-1568.857142857143
2788.857142857143,-785.4285714285716,-1570.0
2748.3877551020405,-744.9795918367347,-1571.142857142857
2707.918367346939,-704.5306122448981,-1572.2857142857142
2667.4489795918366,-664.0816326530612,-1573.4285714285713
2626.9795918367345,-623.6326530612246,-1574.5714285714287
2586.5102040816328,-583.1836734693879,-1575.7142857142858
2546.0408163265306,-542.7346938775511,-1576.857142857143
2505.5714285714284,-502.28571428571445,-1578.0
2465.1020408163267,-461.8367346938776,-1579.142857142857
2424.6326530612246,-421.38775510204096,-1580.2857142857142
2384.1632653061224,-380.9387755102041,-1581.4285714285713
2343.6938775510207,-340.48979591836746,-1582.5714285714287
2303.224489795918,-300.0408163265306,-1583.7142857142858
2262.7551020408164,-259.59183673469397,-1584.857142857143
2222.285714285714,-219.14285714285734,-1586.0
2181.816326530612,-178.69387755102048,-1587.142857142857
2141.3469387755104,-138.24489795918385,-1588.2857142857142
2100.877551020408,-97.79591836734699,-1589.4285714285713
2060.408163265306,-57.34693877551035,-1590.5714285714287
2019.938775510204,-16.897959183673493,-1591.7142857142858
1979.4693877551022,23.55102040816314,-1592.857142857143
1939.0,64.0,-1594.0
1938.8076923076924,65.09615384615384,-1593.576923076923
1938.6153846153845,66.1923076923077,-1593.1538461538462
1938.423076923077,67.28846153846153,-1592.7307692307693
1938.2307692307693,68.38461538461539,-1592.3076923076924
1938.0384615384614,69.48076923076923,-1591.8846153846155
1937.8461538461538,70.57692307692308,-1591.4615384615386
1937.6538461538462,71.67307692307692,-1591.0384615384614
1937.4615384615386,72.76923076923077,-1590.6153846153845
1937.2692307692307,73.86538461538461,-1590.1923076923076
1937.076923076923,74.96153846153847,-1589.7692307692307
1936.8846153846155,76.0576923076923,-1589.3461538461538
1936.6923076923076,77.15384615384616,-1588.923076923077
1936.5,78.25,-1588.5
1936.3076923076924,79.34615384615384,-1588.076923076923
1936.1153846153845,80.4423076923077,-1587.6538461538462
1935.923076923077,81.53846153846155,-1587.2307692307693
1935.7307692307693,82.63461538461539,-1586.8076923076924
1935.5384615384614,83.73076923076923,-1586.3846153846155
1935.3461538461538,84.82692307692308,-1585.9615384615386
1935.1538461538462,85.92307692307693,-1585.5384615384614
1934.9615384615386,87.01923076923077,-1585.1153846153845
1934.7692307692307,88.11538461538461,-1584.6923076923076
1934.576923076923,89.21153846153847,-1584.2692307692307
1934.3846153846155,90.3076923076923,-1583.8461538461538
1934.1923076923076,91.40384615384616,-1583.423076923077
1934.0,92.5,-1583.0
1933.8076923076924,93.59615384615385,-1582.576923076923
1933.6153846153845,94.6923076923077,-1582.1538461538462
1933.423076923077,95.78846153846155,-1581.7307692307693
1933.2307692307693,96.88461538461539,-1581.3076923076924
1933.0384615384614,97.98076923076923,-1580.8846153846155
1932.8461538461538,99.07692307692308,-1580.4615384615386
1932.6538461538462,100.17307692307693,-1580.0384615384614
1932.4615384615386,101.26923076923077,-1579.6153846153845
1932.2692307692307,102.36538461538461,-1579.1923076923076
1932.076923076923,103.46153846153847,-1578.7692307692307
1931.8846153846155,104.55769230769232,-1578.3461538461538
1931.6923076923076,105.65384615384616,-1577.923076923077
1931.5,106.75,-1577.5
1931.3076923076924,107.84615384615385,-1577.076923076923
1931.1153846153845,108.9423076923077,-1576.6538461538462
1930.923076923077,110.03846153846155,-1576.2307692307693
1930.7307692307693,111.13461538461539,-1575.8076923076924
1930.5384615384614,112.23076923076923,-1575.3846153846155
1930.3461538461538,113.32692307692308,-1574.9615384615386
1930.1538461538462,114.42307692307693,-1574.5384615384614
1929.9615384615386,115.51923076923077,-1574.1153846153845
1929.7692307692307,116.61538461538461,-1573.6923076923076
1929.576923076923,117.71153846153847,-1573.2692307692307
1929.3846153846155,118.80769230769232,-1572.8461538461538
1929.1923076923076,119.90384615384616,-1572.423076923077
1929.0,121.0,-1572.0
1968.6470588235295,83.31372549019608,-1534.3921568627452
2008.2941176470588,45.627450980392155,-1496.7843137254902
2047.9411764705883,7.941176470588232,-1459.1764705882354
2087.5882352941176,-29.74509803921569,-1421.5686274509803
2127.235294117647,-67.43137254901961,-1383.9607843137255
2166.8823529411766,-105.11764705882354,-1346.3529411764705
2206.529411764706,-142.80392156862746,-1308.7450980392157
2246.176470588235,-180.49019607843138,-1271.1372549019607
2285.823529411765,-218.1764705882353,-1233.5294117647059
2325.470588235294,-255.86274509803923,-1195.921568627451
2365.1176470588234,-293.54901960784315,-1158.313725490196
2404.764705882353,-331.2352941176471,-1120.7058823529412
2444.4117647058824,-368.921568627451,-1083.0980392156862
2484.0588235294117,-406.6078431372549,-1045.4901960784314
2523.7058823529414,-444.2941176470588,-1007.8823529411765
2563.3529411764707,-481.98039215686276,-970.2745098039215
2603.0,-519.6666666666667,-932.6666666666666
2642.6470588235293,-557.3529411764706,-895.0588235294117
2682.294117647059,-595.0392156862745,-857.4509803921568
2721.9411764705883,-632.7254901960785,-819.8431372549019
2761.5882352941176,-670.4117647058824,-782.2352941176471
2801.235294117647,-708.0980392156863,-744.6274509803922
2840.8823529411766,-745.7843137254902,-707.0196078431372
2880.529411764706,-783.4705882352941,-669.4117647058823
2920.176470588235,-821.1568627450981,-631.8039215686274
2959.823529411765,-858.843137254902,-594.1960784313725
2999.470588235294,-896.5294117647059,-556.5882352941176
3039.1176470588234,-934.2156862745098,-518.9803921568628
3078.764705882353,-971.9019607843138,-481.37254901960773
3118.4117647058824,-1009.5882352941176,-443.7647058823529
3158.0588235294117,-1047.2745098039215,-406.1568627450979
3197.7058823529414,-1084.9607843137255,-368.5490196078431
3237.3529411764707,-1122.6470588235295,-330.9411764705883
3277.0,-1160.3333333333335,-293.33333333333326
3316.6470588235297,-1198.0196078431372,-255.72549019607845
3356.2941176470586,-1235.7058823529412,-218.11764705882342
3395.9411764705883,-1273.3921568627452,-180.50980392156862
3435.588235294118,-1311.078431372549,-142.9019607843136
3475.235294117647,-1348.764705882353,-105.29411764705878
3514.8823529411766,-1386.450980392157,-67.68627450980375
3554.529411764706,-1424.137254901961,-30.07843137254895
3594.176470588235,-1461.8235294117649,7.529411764705856
3633.823529411765,-1499.5098039215686,45.13725490196089
3673.470588235294,-1537.1960784313726,82.74509803921569
3713.1176470588234,-1574.8823529411766,120.35294117647072
3752.764705882353,-1612.5686274509803,157.96078431372553
3792.4117647058824,-1650.2549019607843,195.56862745098056
3832.0588235294117,-1687.9411764705883,233.17647058823536
3871.7058823529414,-1725.6274509803923,270.78431372549016
3911.3529411764707,-1763.3137254901962,308.3921568627452
3951.0,-1801.0,346.0
3907.872340425532,-1760.7446808510638,305.2127659574468
3864.744680851064,-1720.4893617021276,264.4255319148936
3821.6170212765956,-1680.2340425531916,223.63829787234042
3778.4893617021276,-1639.9787234042553,182.85106382978722
3735.3617021276596,-1599.723404255319,142.06382978723403
3692.2340425531916,-1559.468085106383,101.27659574468083
3649.1063829787236,-1519.2127659574467,60.48936170212767
3605.978723404255,-1478.9574468085107,19.702127659574444
3562.851063829787,-1438.7021276595744,-21.08510638297878
3519.723404255319,-1398.4468085106382,-61.872340425531945
3476.595744680851,-1358.1914893617022,-102.65957446808511
3433.468085106383,-1317.9361702127658,-143.44680851063833
3390.3404255319147,-1277.6808510638298,-184.23404255319156
3347.212765957447,-1237.4255319148936,-225.02127659574467
3304.0851063829787,-1197.1702127659573,-265.8085106382979
3260.9574468085107,-1156.9148936170213,-306.5957446808511
3217.8297872340427,-1116.6595744680849,-347.38297872340434
3174.702127659574,-1076.404255319149,-388.17021276595756
3131.5744680851067,-1036.1489361702127,-428.95744680851067
3088.446808510638,-995.8936170212766,-469.7446808510639
3045.31914893617,-955.6382978723403,-510.5319148936171
3002.191489361702,-915.3829787234042,-551.3191489361702
2959.063829787234,-875.127659574468,-592.1063829787234
2915.9361702127662,-834.8723404255318,-632.8936170212767
2872.808510638298,-794.6170212765957,-673.6808510638299
2829.68085106383,-754.3617021276596,-714.4680851063831
2786.553191489362,-714.1063829787233,-755.2553191489362
2743.425531914894,-673.8510638297871,-796.0425531914893
2700.297872340426,-633.5957446808509,-836.8297872340427
2657.1702127659573,-593.3404255319149,-877.6170212765958
2614.0425531914893,-553.0851063829787,-918.4042553191491
2570.9148936170213,-512.8297872340424,-959.1914893617022
2527.7872340425533,-472.5744680851062,-999.9787234042553
2484.6595744680853,-432.31914893617,-1040.7659574468087
2441.531914893617,-392.063829787234,-1081.5531914893618
2398.404255319149,-351.8085106382978,-1122.3404255319151
2355.276595744681,-311.55319148936155,-1163.1276595744682
2312.148936170213,-271.29787234042533,-1203.9148936170213
2269.021276595745,-231.04255319148933,-1244.7021276595747
2225.8936170212764,-190.7872340425531,-1285.4893617021278
2182.765957446809,-150.5319148936169,-1326.276595744681
2139.6382978723404,-110.27659574468066,-1367.0638297872342
2096.5106382978724,-70.02127659574444,-1407.8510638297873
2053.3829787234044,-29.765957446808443,-1448.6382978723404
2010.2553191489362,10.48936170212778,-1489.4255319148938
1967.1276595744682,50.744680851064004,-1530.212765957447
1924.0,91.0,-1571.0
1961.111111111111,54.05555555555556,-1535.1666666666667
1998.2222222222222,17.111111111111114,-1499.3333333333333
2035.3333333333333,-19.83333333333333,-1463.5
2072.4444444444443,-56.77777777777777,-1427.6666666666667
2109.5555555555557,-93.72222222222223,-1391.8333333333333
2146.6666666666665,-130.66666666666666,-1356.0
2183.777777777778,-167.6111111111111,-1320.1666666666667
2220.8888888888887,-204.55555555555554,-1284.3333333333333
2258.0,-241.5,-1248.5
2295.1111111111113,-278.44444444444446,-1212.6666666666665
2332.222222222222,-315.38888888888886,-1176.8333333333333
2369.3333333333335,-352.3333333333333,-1141.0
2406.4444444444443,-389.27777777777777,-1105.1666666666665
2443.5555555555557,-426.2222222222222,-1069.3333333333333
2480.666666666667,-463.16666666666663,-1033.5
2517.777777777778,-500.1111111111111,-997.6666666666666
2554.8888888888887,-537.0555555555555,-961.8333333333333
2592.0,-574.0,-926.0
2629.1111111111113,-610.9444444444445,-890.1666666666666
2666.222222222222,-647.8888888888889,-854.3333333333333
2703.3333333333335,-684.8333333333333,-818.5
2740.4444444444443,-721.7777777777777,-782.6666666666666
2777.5555555555557,-758.7222222222222,-746.8333333333333
2814.666666666667,-795.6666666666666,-711.0
2851.777777777778,-832.6111111111111,-675.1666666666666
2888.8888888888887,-869.5555555555555,-639.3333333333333
2926.0,-906.5,-603.4999999999999
2963.1111111111113,-943.4444444444443,-567.6666666666666
3000.2222222222226,-980.3888888888889,-531.8333333333333
3037.3333333333335,-1017.3333333333333,-496.0
3074.4444444444443,-1054.2777777777778,-460.1666666666665
3111.5555555555557,-1091.2222222222222,-424.33333333333326
3148.666666666667,-1128.1666666666665,-388.5
3185.777777777778,-1165.111111111111,-352.6666666666665
3222.8888888888887,-1202.0555555555554,-316.83333333333326
3260.0,-1239.0,-281.0
3297.1111111111113,-1275.9444444444443,-245.16666666666652
3334.2222222222226,-1312.888888888889,-209.33333333333326
3371.3333333333335,-1349.8333333333333,-173.5
3408.4444444444443,-1386.7777777777778,-137.66666666666652
3445.5555555555557,-1423.7222222222222,-101.83333333333326
3482.666666666667,-1460.6666666666665,-66.0
3519.777777777778,-1497.611111111111,-30.166666666666515
3556.888888888889,-1534.5555555555554,5.6666666666667425
3594.0,-1571.5,41.5
3631.1111111111113,-1608.4444444444443,77.33333333333348
3668.2222222222226,-1645.388888888889,113.16666666666674
3705.3333333333335,-1682.3333333333333,149.0
3742.4444444444443,-1719.2777777777776,184.83333333333348
3779.5555555555557,-1756.2222222222222,220.66666666666674
3816.666666666667,-1793.1666666666665,256.5000000000002
3853.777777777778,-1830.111111111111,292.3333333333335
3890.888888888889,-1867.0555555555554,328.16666666666674
3928.0,-1904.0,364.0
3927.7083333333335,-1862.4791666666667,322.0625
3927.4166666666665,-1820.9583333333333,280.125
3927.125,-1779.4375,238.1875
3926.8333333333335,-1737.9166666666667,196.25
3926.5416666666665,-1696.3958333333333,154.3125
3926.25,-1654.875,112.375
3925.9583333333335,-1613.3541666666665,70.4375
3925.6666666666665,-1571.8333333333333,28.5
3925.375,-1530.3125,-13.4375
3925.0833333333335,-1488.7916666666665,-55.375
3924.7916666666665,-1447.2708333333333,-97.3125
3924.5,-1405.75,-139.25
3924.2083333333335,-1364.2291666666665,-181.1875
3923.9166666666665,-1322.7083333333333,-223.125
3923.625,-1281.1875,-265.0625
3923.3333333333335,-1239.6666666666665,-307.0
3923.0416666666665,-1198.1458333333333,-348.9375
3922.75,-1156.625,-390.875
3922.4583333333335,-1115.1041666666665,-432.8125
3922.1666666666665,-1073.5833333333333,-474.75
3921.875,-1032.0625,-516.6875
3921.5833333333335,-990.5416666666666,-558.625
3921.2916666666665,-949.0208333333333,-600.5625
3921.0,-907.5,-642.5
3920.7083333333335,-865.9791666666665,-684.4375
3920.4166666666665,-824.4583333333333,-726.375
3920.125,-782.9375,-768.3125
3919.8333333333335,-741.4166666666665,-810.25
3919.5416666666665,-699.8958333333333,-852.1875
3919.25,-658.375,-894.125
3918.9583333333335,-616.8541666666665,-936.0625
3918.6666666666665,-575.3333333333333,-978.0
3918.375,-533.8125,-1019.9375
3918.0833333333335,-492.2916666666665,-1061.875
3917.7916666666665,-450.77083333333326,-1103.8125
3917.5,-409.25,-1145.75
3917.2083333333335,-367.7291666666665,-1187.6875
3916.9166666666665,-326.20833333333326,-1229.625
3916.625,-284.6875,-1271.5625
3916.3333333333335,-243.16666666666652,-1313.5
3916.0416666666665,-201.64583333333326,-1355.4375
3915.75,-160.125,-1397.375
3915.4583333333335,-118.60416666666652,-1439.3125
3915.1666666666665,-77.08333333333326,-1481.25
3914.875,-35.5625,-1523.1875
3914.5833333333335,5.958333333333485,-1565.125
3914.2916666666665,47.47916666666674,-1607.0625
3914.0,89.0,-1649.0
3873.8541666666665,48.645833333333336,-1607.7291666666667
3833.7083333333335,8.291666666666671,-1566.4583333333333
3793.5625,-32.0625,-1525.1875
3753.4166666666665,-72.41666666666666,-1483.9166666666667
3713.2708333333335,-112.77083333333331,-1442.6458333333333
3673.125,-153.125,-1401.375
3632.9791666666665,-193.47916666666663,-1360.1041666666665
3592.8333333333335,-233.83333333333331,-1318.8333333333333
3552.6875,-274.1875,-1277.5625
3512.5416666666665,-314.54166666666663,-1236.2916666666665
3472.3958333333335,-354.8958333333333,-1195.0208333333333
3432.25,-395.25,-1153.75
3392.1041666666665,-435.60416666666663,-1112.4791666666665
3351.958333333333,-475.95833333333326,-1071.2083333333333
3311.8125,-516.3125,-1029.9375
3271.6666666666665,-556.6666666666666,-988.6666666666666
3231.520833333333,-597.0208333333333,-947.3958333333333
3191.375,-637.375,-906.125
3151.2291666666665,-677.7291666666666,-864.8541666666666
3111.083333333333,-718.0833333333333,-823.5833333333333
3070.9375,-758.4375,-782.3125
3030.7916666666665,-798.7916666666666,-741.0416666666666
2990.645833333333,-839.1458333333333,-699.7708333333333
2950.5,-879.5,-658.5
2910.3541666666665,-919.8541666666666,-617.2291666666665
2870.208333333333,-960.2083333333333,-575.9583333333333
2830.0625,-1000.5625,-534.6875
2789.9166666666665,-1040.9166666666665,-493.4166666666665
2749.770833333333,-1081.2708333333333,-452.14583333333326
2709.625,-1121.625,-410.875
2669.4791666666665,-1161.9791666666665,-369.6041666666665
2629.333333333333,-1202.3333333333333,-328.33333333333326
2589.1875,-1242.6875,-287.0625
2549.0416666666665,-1283.0416666666665,-245.79166666666652
2508.895833333333,-1323.3958333333333,-204.52083333333326
2468.75,-1363.75,-163.25
2428.6041666666665,-1404.1041666666665,-121.97916666666652
2388.458333333333,-1444.4583333333333,-80.70833333333326
2348.3125,-1484.8125,-39.4375
2308.1666666666665,-1525.1666666666665,1.833333333333485
2268.020833333333,-1565.5208333333333,43.10416666666674
2227.875,-1605.875,84.375
2187.7291666666665,-1646.2291666666665,125.64583333333348
2147.583333333333,-1686.5833333333333,166.91666666666674
2107.4375,-1726.9375,208.1875
2067.2916666666665,-1767.2916666666665,249.45833333333348
2027.1458333333333,-1807.6458333333333,290.72916666666674
1987.0,-1848.0,332.0
2022.0555555555557,-1848.9444444444443,332.94444444444446
2057.1111111111113,-1849.888888888889,333.8888888888889
2092.1666666666665,-1850.8333333333333,334.8333333333333
2127.222222222222,-1851.7777777777778,335.77777777777777
2162.277777777778,-1852.7222222222222,336.72222222222223
2197.3333333333335,-1853.6666666666667,337.6666666666667
2232.3888888888887,-1854.611111111111,338.6111111111111
2267.4444444444443,-1855.5555555555557,339.55555555555554
2302.5,-1856.5,340.5
2337.5555555555557,-1857.4444444444443,341.44444444444446
2372.6111111111113,-1858.388888888889,342.3888888888889
2407.6666666666665,-1859.3333333333333,343.3333333333333
2442.722222222222,-1860.2777777777778,344.27777777777777
2477.777777777778,-1861.2222222222222,345.22222222222223
2512.8333333333335,-1862.1666666666667,346.1666666666667
2547.8888888888887,-1863.111111111111,347.1111111111111
2582.9444444444443,-1864.0555555555557,348.05555555555554
2618.0,-1865.0,349.0
2653.0555555555557,-1865.9444444444443,349.94444444444446
2688.1111111111113,-1866.888888888889,350.8888888888889
2723.166666666667,-1867.8333333333333,351.8333333333333
2758.222222222222,-1868.7777777777778,352.77777777777777
2793.277777777778,-1869.7222222222222,353.72222222222223
2828.3333333333335,-1870.6666666666667,354.6666666666667
2863.3888888888887,-1871.611111111111,355.6111111111111
2898.4444444444443,-1872.5555555555557,356.55555555555554
2933.5,-1873.5,357.5
2968.5555555555557,-1874.4444444444443,358.44444444444446
3003.6111111111113,-1875.388888888889,359.3888888888889
3038.666666666667,-1876.3333333333333,360.3333333333333
3073.722222222222,-1877.2777777777778,361.27777777777777
3108.777777777778,-1878.2222222222222,362.22222222222223
3143.8333333333335,-1879.1666666666667,363.1666666666667
3178.8888888888887,-1880.111111111111,364.1111111111111
3213.9444444444443,-1881.0555555555557,365.05555555555554
3249.0,-1882.0,366.0
3284.0555555555557,-1882.9444444444443,366.94444444444446
3319.1111111111113,-1883.888888888889,367.8888888888889
3354.166666666667,-1884.8333333333333,368.8333333333333
3389.222222222222,-1885.7777777777778,369.77777777777777
3424.277777777778,-1886.7222222222222,370.72222222222223
3459.3333333333335,-1887.6666666666667,371.6666666666667
3494.3888888888887,-1888.611111111111,372.6111111111111
3529.4444444444443,-1889.5555555555557,373.55555555555554
3564.5,-1890.5,374.5
3599.5555555555557,-1891.4444444444443,375.44444444444446
3634.6111111111113,-1892.388888888889,376.3888888888889
3669.666666666667,-1893.3333333333333,377.3333333333333
3704.7222222222226,-1894.2777777777778,378.27777777777777
3739.777777777778,-1895.2222222222222,379.22222222222223
3774.8333333333335,-1896.1666666666667,380.1666666666667
3809.8888888888887,-1897.111111111111,381.1111111111111
3844.9444444444443,-1898.0555555555557,382.05555555555554
3880.0,-1899.0,383.0
3879.9333333333334,-1898.3833333333334,378.0833333333333
3879.866666666667,-1897.7666666666667,373.1666666666667
3879.8,-1897.15,368.25
3879.733333333333,-1896.5333333333333,363.3333333333333
3879.6666666666665,-1895.9166666666667,358.4166666666667
3879.6,-1895.3,353.5
3879.5333333333333,-1894.6833333333334,348.5833333333333
3879.4666666666667,-1894.0666666666666,343.6666666666667
3879.4,-1893.45,338.75
3879.3333333333335,-1892.8333333333333,333.8333333333333
3879.266666666667,-1892.2166666666667,328.9166666666667
3879.2,-1891.6,324.0
3879.133333333333,-1890.9833333333333,319.0833333333333
3879.0666666666666,-1890.3666666666666,314.16666666666663
3879.0,-1889.75,309.25
3878.9333333333334,-1889.1333333333334,304.3333333333333
3878.866666666667,-1888.5166666666667,299.41666666666663
3878.8,-1887.9,294.5
3878.733333333333,-1887.2833333333333,289.5833333333333
3878.6666666666665,-1886.6666666666667,284.66666666666663
3878.6,-1886.05,279.75
3878.5333333333333,-1885.4333333333334,274.8333333333333
3878.4666666666667,-1884.8166666666666,269.91666666666663
3878.4,-1884.2,265.0
3878.3333333333335,-1883.5833333333333,260.0833333333333
3878.266666666667,-1882.9666666666667,255.16666666666666
3878.2,-1882.35,250.25
3878.133333333333,-1881.7333333333333,245.33333333333331
3878.0666666666666,-1881.1166666666666,240.41666666666666
3878.0,-1880.5,235.5
3877.9333333333334,-1879.8833333333334,230.58333333333331
3877.866666666667,-1879.2666666666667,225.66666666666666
3877.8,-1878.65,220.75
3877.733333333333,-1878.0333333333333,215.83333333333331
3877.6666666666665,-1877.4166666666667,210.91666666666666
3877.6,-1876.8,206.0
3877.5333333333333,-1876.1833333333334,201.08333333333331
3877.4666666666667,-1875.5666666666666,196.16666666666666
3877.4,-1874.95,191.25
3877.3333333333335,-1874.3333333333333,186.33333333333331
3877.266666666667,-1873.7166666666667,181.41666666666666
3877.2,-1873.1,176.5
3877.133333333333,-1872.4833333333333,171.58333333333331
3877.0666666666666,-1871.8666666666666,166.66666666666666
3877.0,-1871.25,161.75
3876.9333333333334,-1870.6333333333334,156.83333333333331
3876.866666666667,-1870.0166666666667,151.91666666666666
3876.8,-1869.4,147.0
3876.733333333333,-1868.7833333333333,142.08333333333331
3876.6666666666665,-1868.1666666666667,137.16666666666666
3876.6,-1867.55,132.24999999999997
3876.5333333333333,-1866.9333333333334,127.33333333333331
3876.4666666666667,-1866.3166666666666,122.41666666666663
3876.4,-1865.7,117.5
3876.3333333333335,-1865.0833333333333,112.58333333333331
3876.266666666667,-1864.4666666666667,107.66666666666663
3876.2,-1863.85,102.75
3876.133333333333,-1863.2333333333333,97.83333333333331
3876.0666666666666,-1862.6166666666666,92.91666666666663
3876.0,-1862.0,88.0
3875.722222222222,-1860.5,39.69444444444444
3875.4444444444443,-1859.0,-8.611111111111114
3875.1666666666665,-1857.5,-56.916666666666686
3874.8888888888887,-1856.0,-105.22222222222223
3874.6111111111113,-1854.5,-153.52777777777777
3874.3333333333335,-1853.0,-201.83333333333337
3874.0555555555557,-1851.5,-250.1388888888889
3873.777777777778,-1850.0,-298.44444444444446
3873.5,-1848.5,-346.75
3873.222222222222,-1847.0,-395.05555555555554
3872.9444444444443,-1845.5,-443.3611111111111
3872.6666666666665,-1844.0,-491.66666666666674
3872.3888888888887,-1842.5,-539.9722222222223
3872.1111111111113,-1841.0,-588.2777777777778
3871.8333333333335,-1839.5,-636.5833333333334
3871.5555555555557,-1838.0,-684.8888888888889
3871.277777777778,-1836.5,-733.1944444444445
3871.0,-1835.0,-781.5
3870.722222222222,-1833.5,-829.8055555555555
3870.4444444444443,-1832.0,-878.1111111111111
3870.1666666666665,-1830.5,-926.4166666666667
3869.8888888888887,-1829.0,-974.7222222222222
3869.6111111111113,-1827.5,-1023.0277777777778
3869.3333333333335,-1826.0,-1071.3333333333335
3869.0555555555557,-1824.5,-1119.638888888889
3868.777777777778,-1823.0,-1167.9444444444446
3868.5,-1821.5,-1216.25
3868.222222222222,-1820.0,-1264.5555555555557
3867.9444444444443,-1818.5,-1312.861111111111
3867.6666666666665,-1817.0,-1361.1666666666667
3867.3888888888887,-1815.5,-1409.4722222222222
3867.1111111111113,-1814.0,-1457.7777777777778
3866.8333333333335,-1812.5,-1506.0833333333335
3866.5555555555557,-1811.0,-1554.388888888889
3866.277777777778,-1809.5,-1602.6944444444446
3866.0,-1808.0,-1651.0
3825.5555555555557,-1767.6296296296296,-1613.4444444444443
3785.1111111111113,-1727.2592592592594,-1575.888888888889
3744.6666666666665,-1686.888888888889,-1538.3333333333333
3704.222222222222,-1646.5185185185185,-1500.7777777777778
3663.777777777778,-1606.148148148148,-1463.2222222222222
3623.3333333333335,-1565.7777777777778,-1425.6666666666667
3582.8888888888887,-1525.4074074074074,-1388.111111111111
3542.4444444444443,-1485.037037037037,-1350.5555555555557
3502.0,-1444.6666666666665,-1313.0
3461.5555555555557,-1404.2962962962963,-1275.4444444444443
3421.1111111111113,-1363.9259259259259,-1237.888888888889
3380.6666666666665,-1323.5555555555557,-1200.3333333333333
3340.222222222222,-1283.1851851851852,-1162.7777777777778
3299.777777777778,-1242.8148148148148,-1125.2222222222222
3259.3333333333335,-1202.4444444444443,-1087.6666666666665
3218.8888888888887,-1162.074074074074,-1050.111111111111
3178.4444444444443,-1121.7037037037037,-1012.5555555555555
3138.0,-1081.3333333333333,-975.0
3097.5555555555557,-1040.962962962963,-937.4444444444445
3057.1111111111113,-1000.5925925925925,-899.8888888888889
3016.666666666667,-960.2222222222222,-862.3333333333333
2976.222222222222,-919.8518518518517,-824.7777777777777
2935.777777777778,-879.4814814814814,-787.2222222222222
2895.3333333333335,-839.1111111111111,-749.6666666666666
2854.8888888888887,-798.7407407407406,-712.1111111111111
2814.4444444444443,-758.3703703703702,-674.5555555555555
2774.0,-718.0,-637.0
2733.5555555555557,-677.6296296296296,-599.4444444444443
2693.1111111111113,-637.2592592592591,-561.8888888888889
2652.666666666667,-596.8888888888887,-524.3333333333333
2612.222222222222,-556.5185185185185,-486.7777777777778
2571.777777777778,-516.148148148148,-449.2222222222222
2531.3333333333335,-475.7777777777776,-411.6666666666665
2490.8888888888887,-435.4074074074074,-374.1111111111111
2450.4444444444443,-395.03703703703695,-336.55555555555543
2410.0,-354.6666666666665,-299.0
2369.5555555555557,-314.2962962962961,-261.44444444444434
2329.1111111111113,-273.92592592592587,-223.8888888888889
2288.666666666667,-233.55555555555543,-186.33333333333326
2248.222222222222,-193.185185185185,-148.77777777777783
2207.777777777778,-152.81481481481478,-111.22222222222217
2167.3333333333335,-112.44444444444434,-73.66666666666652
2126.8888888888887,-72.0740740740739,-36.111111111111086
2086.4444444444443,-31.703703703703468,1.4444444444445708
2046.0,8.666666666666742,39.0
2005.5555555555557,49.03703703703718,76.55555555555566
1965.111111111111,89.40740740740762,114.11111111111109
1924.6666666666667,129.77777777777783,151.66666666666674
1884.2222222222224,170.14814814814827,189.2222222222224
1843.7777777777778,210.5185185185187,226.77777777777783
1803.3333333333335,250.88888888888914,264.3333333333335
1762.8888888888891,291.2592592592596,301.8888888888889
1722.4444444444443,331.62962962963,339.44444444444457
1682.0,372.0,377.0
1728.4583333333333,325.3333333333333,334.9166666666667
1774.9166666666667,278.6666666666667,292.8333333333333
1821.375,232.0,250.75
1867.8333333333333,185.33333333333334,208.66666666666666
1914.2916666666667,138.66666666666669,166.58333333333331
1960.75,92.0,124.5
2007.2083333333335,45.33333333333337,82.41666666666663
2053.6666666666665,-1.3333333333333144,40.333333333333314
2100.125,-48.0,-1.75
2146.5833333333335,-94.66666666666663,-43.83333333333337
2193.0416666666665,-141.33333333333326,-85.91666666666669
2239.5,-188.0,-128.0
2285.9583333333335,-234.66666666666663,-170.08333333333337
2332.416666666667,-281.33333333333326,-212.16666666666674
2378.875,-328.0,-254.25
2425.3333333333335,-374.66666666666663,-296.33333333333337
2471.791666666667,-421.33333333333326,-338.41666666666674
2518.25,-468.0,-380.5
2564.7083333333335,-514.6666666666666,-422.58333333333337
2611.166666666667,-561.3333333333333,-464.66666666666674
2657.625,-608.0,-506.75
2704.0833333333335,-654.6666666666665,-548.8333333333334
2750.541666666667,-701.3333333333333,-590.9166666666667
2797.0,-748.0,-633.0
2843.4583333333335,-794.6666666666665,-675.0833333333335
2889.916666666667,-841.3333333333333,-717.1666666666667
2936.375,-888.0,-759.25
2982.8333333333335,-934.6666666666665,-801.3333333333335
3029.291666666667,-981.3333333333333,-843.4166666666667
3075.75,-1028.0,-885.5
3122.2083333333335,-1074.6666666666665,-927.5833333333335
3168.666666666667,-1121.3333333333333,-969.6666666666667
3215.125,-1168.0,-1011.75
3261.5833333333335,-1214.6666666666665,-1053.8333333333335
3308.041666666667,-1261.3333333333333,-1095.9166666666667
3354.5,-1308.0,-1138.0
3400.9583333333335,-1354.6666666666665,-1180.0833333333335
3447.416666666667,-1401.3333333333333,-1222.1666666666667
3493.875,-1448.0,-1264.25
3540.3333333333335,-1494.6666666666665,-1306.3333333333335
3586.791666666667,-1541.3333333333333,-1348.4166666666667
3633.25,-1588.0,-1390.5
3679.7083333333335,-1634.6666666666665,-1432.5833333333335
3726.166666666667,-1681.333333333333,-1474.6666666666667
3772.625,-1728.0,-1516.75
3819.0833333333335,-1774.6666666666665,-1558.8333333333335
3865.541666666667,-1821.333333333333,-1600.9166666666667
3912.0,-1868.0,-1643.0
3911.4897959183672,-1866.9591836734694,-1602.061224489796
3910.9795918367345,-1865.9183673469388,-1561.1224489795918
3910.469387755102,-1864.8775510204082,-1520.1836734693877
3909.9591836734694,-1863.8367346938776,-1479.2448979591836
3909.4489795918366,-1862.795918367347,-1438.3061224489795
3908.938775510204,-1861.7551020408164,-1397.3673469387754
3908.4285714285716,-1860.7142857142858,-1356.4285714285716
3907.918367346939,-1859.6734693877552,-1315.4897959183672
3907.408163265306,-1858.6326530612246,-1274.5510204081634
3906.8979591836733,-1857.591836734694,-1233.612244897959
3906.387755102041,-1856.5510204081634,-1192.6734693877552
3905.877551020408,-1855.5102040816328,-1151.734693877551
3905.3673469387754,-1854.469387755102,-1110.795918367347
3904.8571428571427,-1853.4285714285713,-1069.857142857143
3904.3469387755104,-1852.3877551020407,-1028.9183673469388
3903.8367346938776,-1851.3469387755101,-987.9795918367347
3903.326530612245,-1850.3061224489795,-947.0408163265306
3902.816326530612,-1849.265306122449,-906.1020408163265
3902.3061224489797,-1848.2244897959183,-865.1632653061224
3901.795918367347,-1847.1836734693877,-824.2244897959183
3901.285714285714,-1846.142857142857,-783.2857142857143
3900.7755102040815,-1845.1020408163265,-742.3469387755102
3900.265306122449,-1844.061224489796,-701.4081632653061
3899.7551020408164,-1843.0204081632653,-660.469387755102
3899.2448979591836,-1841.9795918367347,-619.530612244898
3898.734693877551,-1840.938775510204,-578.591836734694
3898.2244897959185,-1839.8979591836735,-537.6530612244899
3897.714285714286,-1838.857142857143,-496.7142857142858
3897.204081632653,-1837.8163265306123,-455.7755102040817
3896.6938775510203,-1836.7755102040817,-414.8367346938776
3896.183673469388,-1835.734693877551,-373.8979591836735
3895.673469387755,-1834.6938775510205,-332.9591836734694
3895.1632653061224,-1833.6530612244899,-292.0204081632653
3894.6530612244896,-1832.6122448979593,-251.0816326530612
3894.1428571428573,-1831.5714285714287,-210.1428571428571
3893.6326530612246,-1830.530612244898,-169.20408163265301
3893.122448979592,-1829.4897959183672,-128.26530612244892
3892.612244897959,-1828.4489795918366,-87.32653061224482
3892.1020408163267,-1827.408163265306,-46.38775510204073
3891.591836734694,-1826.3673469387754,-5.448979591836633
3891.081632653061,-1825.3265306122448,35.489795918367236
3890.5714285714284,-1824.2857142857142,76.42857142857133
3890.061224489796,-1823.2448979591836,117.36734693877543
3889.5510204081634,-1822.204081632653,158.30612244897952
3889.0408163265306,-1821.1632653061224,199.24489795918362
3888.530612244898,-1820.1224489795918,240.1836734693877
3888.0204081632655,-1819.0816326530612,281.1224489795918
3887.5102040816328,-1818.0408163265306,322.0612244897959
3887.0,-1817.0,363.0
