accX,accY,accZ
3868.0,287.0,372.0
3868.9,287.625,371.1
3869.8,288.25,370.2
3870.7,288.875,369.3
3871.6,289.5,368.4
3872.5,290.125,367.5
3873.4,290.75,366.6
3874.3,291.375,365.7
3875.2,292.0,364.8
3876.1,292.625,363.9
3877.0,293.25,363.0
3877.9,293.875,362.1
3878.8,294.5,361.2
3879.7,295.125,360.3
3880.6,295.75,359.4
3881.5,296.375,358.5
3882.4,297.0,357.6
3883.3,297.625,356.7
3884.2,298.25,355.8
3885.1,298.875,354.9
3886.0,299.5,354.0
3886.9,300.125,353.1
3887.8,300.75,352.2
3888.7,301.375,351.3
3889.6,302.0,350.4
3890.5,302.625,349.5
3891.4,303.25,348.6
3892.3,303.875,347.7
3893.2,304.5,346.8
3894.1,305.125,345.9
3895.0,305.75,345.0
3895.9,306.375,344.1
3896.8,307.0,343.2
3897.7,307.625,342.3
3898.6,308.25,341.4
3899.5,308.875,340.5
3900.4,309.5,339.6
3901.3,310.125,338.7
3902.2,310.75,337.8
3903.1,311.375,336.9
3904.0,312.0,336.0
3904.84,267.78,296.7
3905.68,223.56,257.4
3906.52,179.34,218.10000000000002
3907.36,135.12,178.8
3908.2,90.9,139.5
3909.04,46.68000000000001,100.20000000000002
3909.88,2.4600000000000364,60.900000000000034
3910.72,-41.75999999999999,21.600000000000023
3911.56,-85.98000000000002,-17.69999999999999
3912.4,-130.2,-57.0
3913.24,-174.41999999999996,-96.29999999999995
3914.08,-218.64,-135.59999999999997
3914.92,-262.86,-174.89999999999998
3915.76,-307.0799999999999,-214.19999999999993
3916.6,-351.29999999999995,-253.5
3917.44,-395.52,-292.79999999999995
3918.28,-439.74,-332.0999999999999
3919.12,-483.96000000000004,-371.4
3919.96,-528.18,-410.69999999999993
3920.8,-572.4,-450.0
3921.64,-616.62,-489.29999999999995
3922.48,-660.8399999999999,-528.5999999999999
3923.32,-705.06,-567.9
3924.16,-749.28,-607.1999999999999
3925.0,-793.5,-646.4999999999999
3925.84,-837.72,-685.8
3926.68,-881.94,-725.0999999999999
3927.52,-926.1599999999999,-764.3999999999999
3928.36,-970.3799999999999,-803.6999999999998
3929.2,-1014.5999999999999,-843.0
3930.04,-1058.82,-882.3
3930.88,-1103.04,-921.5999999999999
3931.72,-1147.26,-960.8999999999999
3932.56,-1191.48,-1000.1999999999998
3933.4,-1235.7,-1039.5
3934.24,-1279.92,-1078.8
3935.08,-1324.1399999999999,-1118.1
3935.92,-1368.36,-1157.3999999999999
3936.76,-1412.58,-1196.6999999999998
3937.6,-1456.8,-1236.0
3938.44,-1501.02,-1275.3
3939.28,-1545.24,-1314.6
3940.12,-1589.46,-1353.8999999999999
3940.96,-1633.6799999999998,-1393.1999999999998
3941.8,-1677.8999999999999,-1432.4999999999998
3942.64,-1722.12,-1471.8
3943.48,-1766.3400000000001,-1511.1
3944.32,-1810.56,-1550.3999999999999
3945.16,-1854.7799999999997,-1589.6999999999998
3946.0,-1899.0,-1629.0
3944.6938775510203,-1853.6530612244899,-1627.9591836734694
3943.387755102041,-1808.3061224489795,-1626.9183673469388
3942.081632653061,-1762.9591836734694,-1625.8775510204082
3940.7755102040815,-1717.6122448979593,-1624.8367346938776
3939.469387755102,-1672.265306122449,-1623.795918367347
3938.1632653061224,-1626.9183673469388,-1622.7551020408164
3936.8571428571427,-1581.5714285714284,-1621.7142857142858
3935.5510204081634,-1536.2244897959183,-1620.6734693877552
3934.2448979591836,-1490.8775510204082,-1619.6326530612246
3932.938775510204,-1445.5306122448978,-1618.591836734694
3931.6326530612246,-1400.1836734693877,-1617.5510204081634
3930.326530612245,-1354.8367346938776,-1616.5102040816328
3929.0204081632655,-1309.4897959183672,-1615.469387755102
3927.714285714286,-1264.142857142857,-1614.4285714285713
3926.408163265306,-1218.795918367347,-1613.3877551020407
3925.1020408163267,-1173.4489795918366,-1612.3469387755101
3923.795918367347,-1128.1020408163265,-1611.3061224489795
3922.4897959183672,-1082.7551020408164,-1610.265306122449
3921.183673469388,-1037.408163265306,-1609.2244897959183
3919.877551020408,-992.0612244897959,-1608.1836734693877
3918.5714285714284,-946.7142857142858,-1607.142857142857
3917.265306122449,-901.3673469387755,-1606.1020408163265
3915.9591836734694,-856.0204081632653,-1605.061224489796
3914.6530612244896,-810.6734693877552,-1604.0204081632653
3913.3469387755104,-765.3265306122448,-1602.9795918367347
3912.0408163265306,-719.9795918367347,-1601.938775510204
3910.734693877551,-674.6326530612246,-1600.8979591836735
3909.4285714285716,-629.2857142857142,-1599.857142857143
3908.122448979592,-583.9387755102041,-1598.8163265306123
3906.816326530612,-538.591836734694,-1597.7755102040817
3905.5102040816328,-493.2448979591836,-1596.734693877551
3904.204081632653,-447.8979591836735,-1595.6938775510205
3902.8979591836733,-402.55102040816337,-1594.6530612244899
3901.591836734694,-357.204081632653,-1593.6122448979593
3900.285714285714,-311.8571428571429,-1592.5714285714287
3898.9795918367345,-266.51020408163276,-1591.530612244898
3897.673469387755,-221.1632653061224,-1590.4897959183672
3896.3673469387754,-175.8163265306123,-1589.4489795918366
3895.061224489796,-130.46938775510216,-1588.408163265306
3893.7551020408164,-85.12244897959181,-1587.3673469387754
3892.4489795918366,-39.775510204081684,-1586.3265306122448
3891.1428571428573,5.5714285714284415,-1585.2857142857142
3889.8367346938776,50.918367346938794,-1584.2448979591836
3888.530612244898,96.26530612244892,-1583.204081632653
3887.2244897959185,141.61224489795904,-1582.1632653061224
3885.918367346939,186.9591836734694,-1581.1224489795918
3884.612244897959,232.30612244897975,-1580.0816326530612
3883.3061224489797,277.65306122448965,-1579.0408163265306
3882.0,323.0,-1578.0
3881.980769230769,322.9807692307692,-1579.6538461538462
3881.9615384615386,322.96153846153845,-1581.3076923076924
3881.9423076923076,322.9423076923077,-1582.9615384615386
3881.923076923077,322.9230769230769,-1584.6153846153845
3881.903846153846,322.90384615384613,-1586.2692307692307
3881.8846153846152,322.88461538461536,-1587.923076923077
3881.8653846153848,322.86538461538464,-1589.576923076923
3881.846153846154,322.84615384615387,-1591.2307692307693
3881.826923076923,322.8269230769231,-1592.8846153846155
3881.8076923076924,322.8076923076923,-1594.5384615384614
3881.7884615384614,322.78846153846155,-1596.1923076923076
3881.769230769231,322.7692307692308,-1597.8461538461538
3881.75,322.75,-1599.5
3881.730769230769,322.7307692307692,-1601.1538461538462
3881.7115384615386,322.71153846153845,-1602.8076923076924
3881.6923076923076,322.6923076923077,-1604.4615384615386
3881.673076923077,322.6730769230769,-1606.1153846153845
3881.653846153846,322.65384615384613,-1607.7692307692307
3881.6346153846152,322.63461538461536,-1609.423076923077
3881.6153846153848,322.61538461538464,-1611.076923076923
3881.596153846154,322.59615384615387,-1612.7307692307693
3881.576923076923,322.5769230769231,-1614.3846153846155
3881.5576923076924,322.5576923076923,-1616.0384615384614
3881.5384615384614,322.53846153846155,-1617.6923076923076
3881.519230769231,322.5192307692308,-1619.3461538461538
3881.5,322.5,-1621.0
3881.480769230769,322.4807692307692,-1622.6538461538462
3881.4615384615386,322.46153846153845,-1624.3076923076924
3881.4423076923076,322.4423076923077,-1625.9615384615386
3881.423076923077,322.4230769230769,-1627.6153846153845
3881.403846153846,322.40384615384613,-1629.2692307692307
3881.3846153846152,322.38461538461536,-1630.923076923077
3881.3653846153848,322.36538461538464,-1632.576923076923
3881.346153846154,322.34615384615387,-1634.2307692307693
3881.326923076923,322.3269230769231,-1635.8846153846155
3881.3076923076924,322.3076923076923,-1637.5384615384614
3881.2884615384614,322.28846153846155,-1639.1923076923076
3881.269230769231,322.2692307692308,-1640.8461538461538
3881.25,322.25,-1642.5
3881.230769230769,322.2307692307692,-1644.1538461538462
3881.2115384615386,322.21153846153845,-1645.8076923076924
3881.1923076923076,322.1923076923077,-1647.4615384615386
3881.173076923077,322.1730769230769,-1649.1153846153845
3881.153846153846,322.15384615384613,-1650.7692307692307
3881.1346153846152,322.13461538461536,-1652.423076923077
3881.1153846153848,322.11538461538464,-1654.076923076923
3881.096153846154,322.09615384615387,-1655.7307692307693
3881.076923076923,322.0769230769231,-1657.3846153846155
3881.0576923076924,322.0576923076923,-1659.0384615384614
3881.0384615384614,322.03846153846155,-1660.6923076923076
3881.019230769231,322.0192307692308,-1662.3461538461538
3881.0,322.0,-1664.0
3881.14,321.42,-1662.64
3881.28,320.84,-1661.28
3881.42,320.26,-1659.92
3881.56,319.68,-1658.56
3881.7,319.1,-1657.2
3881.84,318.52,-1655.84
3881.98,317.94,-1654.48
3882.12,317.36,-1653.12
3882.26,316.78,-1651.76
3882.4,316.2,-1650.4
3882.54,315.62,-1649.04
3882.68,315.04,-1647.68
3882.82,314.46,-1646.32
3882.96,313.88,-1644.96
3883.1,313.3,-1643.6
3883.24,312.72,-1642.24
3883.38,312.14,-1640.88
3883.52,311.56,-1639.52
3883.66,310.98,-1638.16
3883.8,310.4,-1636.8
3883.94,309.82,-1635.44
3884.08,309.24,-1634.08
3884.22,308.66,-1632.72
3884.36,308.08,-1631.36
3884.5,307.5,-1630.0
3884.64,306.92,-1628.64
3884.78,306.34,-1627.28
3884.92,305.76,-1625.92
3885.06,305.18,-1624.56
3885.2,304.6,-1623.2
3885.34,304.02,-1621.84
3885.48,303.44,-1620.48
3885.62,302.86,-1619.12
3885.76,302.28,-1617.76
3885.9,301.7,-1616.4
3886.04,301.12,-1615.04
3886.18,300.54,-1613.68
3886.32,299.96,-1612.32
3886.46,299.38,-1610.96
3886.6,298.8,-1609.6
3886.74,298.22,-1608.24
3886.88,297.64,-1606.88
3887.02,297.06,-1605.52
3887.16,296.48,-1604.16
3887.3,295.9,-1602.8
3887.44,295.32,-1601.44
3887.58,294.74,-1600.08
3887.72,294.16,-1598.72
3887.86,293.58,-1597.36
3888.0,293.0,-1596.0
3887.918367346939,249.67346938775512,-1596.734693877551
3887.8367346938776,206.3469387755102,-1597.469387755102
3887.7551020408164,163.0204081632653,-1598.204081632653
3887.673469387755,119.69387755102042,-1598.938775510204
3887.591836734694,76.36734693877554,-1599.6734693877552
3887.5102040816328,33.0408163265306,-1600.408163265306
3887.4285714285716,-10.285714285714278,-1601.142857142857
3887.3469387755104,-53.61224489795916,-1601.8775510204082
3887.265306122449,-96.93877551020404,-1602.6122448979593
3887.183673469388,-140.26530612244892,-1603.3469387755101
3887.1020408163267,-183.59183673469386,-1604.0816326530612
3887.0204081632655,-226.9183673469388,-1604.8163265306123
3886.938775510204,-270.2448979591836,-1605.5510204081634
3886.8571428571427,-313.57142857142856,-1606.2857142857142
3886.7755102040815,-356.8979591836734,-1607.0204081632653
3886.6938775510203,-400.2244897959183,-1607.7551020408164
3886.612244897959,-443.55102040816325,-1608.4897959183672
3886.530612244898,-486.8775510204081,-1609.2244897959183
3886.4489795918366,-530.204081632653,-1609.9591836734694
3886.3673469387754,-573.5306122448978,-1610.6938775510205
3886.285714285714,-616.8571428571428,-1611.4285714285713
3886.204081632653,-660.1836734693877,-1612.1632653061224
3886.122448979592,-703.5102040816325,-1612.8979591836735
3886.0408163265306,-746.8367346938776,-1613.6326530612246
3885.9591836734694,-790.1632653061224,-1614.3673469387754
3885.877551020408,-833.4897959183672,-1615.1020408163265
3885.795918367347,-876.8163265306121,-1615.8367346938776
3885.714285714286,-920.1428571428571,-1616.5714285714287
3885.6326530612246,-963.4693877551019,-1617.3061224489795
3885.5510204081634,-1006.7959183673468,-1618.0408163265306
3885.469387755102,-1050.1224489795918,-1618.7755102040817
3885.387755102041,-1093.4489795918366,-1619.5102040816328
3885.3061224489797,-1136.7755102040815,-1620.2448979591836
3885.2244897959185,-1180.1020408163265,-1620.9795918367347
3885.1428571428573,-1223.4285714285713,-1621.7142857142858
3885.061224489796,-1266.7551020408162,-1622.4489795918366
3884.9795918367345,-1310.0816326530612,-1623.1836734693877
3884.8979591836733,-1353.408163265306,-1623.9183673469388
3884.816326530612,-1396.7346938775509,-1624.6530612244899
3884.734693877551,-1440.0612244897957,-1625.3877551020407
3884.6530612244896,-1483.3877551020407,-1626.1224489795918
3884.5714285714284,-1526.7142857142856,-1626.857142857143
3884.4897959183672,-1570.0408163265304,-1627.591836734694
3884.408163265306,-1613.3673469387754,-1628.3265306122448
3884.326530612245,-1656.6938775510203,-1629.061224489796
3884.2448979591836,-1700.020408163265,-1629.795918367347
3884.1632653061224,-1743.3469387755101,-1630.530612244898
3884.081632653061,-1786.6734693877552,-1631.265306122449
3884.0,-1830.0,-1632.0
3884.94,-1829.28,-1632.6
3885.88,-1828.56,-1633.2
3886.82,-1827.84,-1633.8
3887.76,-1827.12,-1634.4
3888.7,-1826.4,-1635.0
3889.64,-1825.68,-1635.6
3890.58,-1824.96,-1636.2
3891.52,-1824.24,-1636.8
3892.46,-1823.52,-1637.4
3893.4,-1822.8,-1638.0
3894.34,-1822.08,-1638.6
3895.28,-1821.36,-1639.2
3896.22,-1820.64,-1639.8
3897.16,-1819.92,-1640.4
3898.1,-1819.2,-1641.0
3899.04,-1818.48,-1641.6
3899.98,-1817.76,-1642.2
3900.92,-1817.04,-1642.8
3901.86,-1816.32,-1643.4
3902.8,-1815.6,-1644.0
3903.74,-1814.88,-1644.6
3904.68,-1814.16,-1645.2
3905.62,-1813.44,-1645.8
3906.56,-1812.72,-1646.4
3907.5,-1812.0,-1647.0
3908.44,-1811.28,-1647.6
3909.38,-1810.56,-1648.2
3910.32,-1809.84,-1648.8
3911.26,-1809.12,-1649.4
3912.2,-1808.4,-1650.0
3913.14,-1807.68,-1650.6
3914.08,-1806.96,-1651.2
3915.02,-1806.24,-1651.8
3915.96,-1805.52,-1652.4
3916.9,-1804.8,-1653.0
3917.84,-1804.08,-1653.6
3918.78,-1803.36,-1654.2
3919.72,-1802.64,-1654.8
3920.66,-1801.92,-1655.4
3921.6,-1801.2,-1656.0
3922.54,-1800.48,-1656.6
3923.48,-1799.76,-1657.2
3924.42,-1799.04,-1657.8
3925.36,-1798.32,-1658.4
3926.3,-1797.6,-1659.0
3927.24,-1796.88,-1659.6
3928.18,-1796.16,-1660.2
3929.12,-1795.44,-1660.8
3930.06,-1794.72,-1661.4
3931.0,-1794.0,-1662.0
3892.4901960784314,-1758.0392156862745,-1661.4901960784314
3853.9803921568628,-1722.078431372549,-1660.9803921568628
3815.470588235294,-1686.1176470588234,-1660.4705882352941
3776.9607843137255,-1650.1568627450981,-1659.9607843137255
3738.450980392157,-1614.1960784313726,-1659.450980392157
3699.9411764705883,-1578.235294117647,-1658.9411764705883
3661.4313725490197,-1542.2745098039215,-1658.4313725490197
3622.921568627451,-1506.313725490196,-1657.921568627451
3584.4117647058824,-1470.3529411764707,-1657.4117647058824
3545.901960784314,-1434.3921568627452,-1656.9019607843138
3507.392156862745,-1398.4313725490197,-1656.3921568627452
3468.8823529411766,-1362.4705882352941,-1655.8823529411766
3430.372549019608,-1326.5098039215686,-1655.3725490196077
3391.8627450980393,-1290.549019607843,-1654.862745098039
3353.3529411764707,-1254.5882352941176,-1654.3529411764705
3314.843137254902,-1218.627450980392,-1653.8431372549019
3276.3333333333335,-1182.6666666666665,-1653.3333333333333
3237.823529411765,-1146.7058823529412,-1652.8235294117646
3199.3137254901962,-1110.7450980392157,-1652.313725490196
3160.8039215686276,-1074.7843137254902,-1651.8039215686274
3122.294117647059,-1038.8235294117649,-1651.2941176470588
3083.7843137254904,-1002.8627450980392,-1650.7843137254902
3045.274509803922,-966.9019607843137,-1650.2745098039215
3006.764705882353,-930.9411764705883,-1649.764705882353
2968.254901960784,-894.9803921568628,-1649.2549019607843
2929.745098039216,-859.0196078431372,-1648.7450980392157
2891.235294117647,-823.0588235294117,-1648.235294117647
2852.7254901960787,-787.0980392156863,-1647.7254901960785
2814.2156862745096,-751.1372549019609,-1647.2156862745098
2775.7058823529414,-715.1764705882354,-1646.7058823529412
2737.1960784313724,-679.2156862745098,-1646.1960784313726
2698.686274509804,-643.2549019607843,-1645.686274509804
2660.176470588235,-607.2941176470588,-1645.1764705882354
2621.666666666667,-571.3333333333333,-1644.6666666666667
2583.156862745098,-535.3725490196077,-1644.1568627450981
2544.6470588235297,-499.41176470588243,-1643.6470588235295
2506.1372549019607,-463.4509803921569,-1643.137254901961
2467.6274509803925,-427.4901960784314,-1642.6274509803923
2429.1176470588234,-391.52941176470586,-1642.1176470588234
2390.6078431372553,-355.56862745098033,-1641.6078431372548
2352.098039215686,-319.6078431372548,-1641.0980392156862
2313.588235294118,-283.6470588235295,-1640.5882352941176
2275.078431372549,-247.68627450980398,-1640.078431372549
2236.568627450981,-211.72549019607845,-1639.5686274509803
2198.0588235294117,-175.76470588235293,-1639.0588235294117
2159.5490196078435,-139.8039215686274,-1638.549019607843
2121.0392156862745,-103.84313725490188,-1638.0392156862745
2082.529411764706,-67.88235294117658,-1637.5294117647059
2044.0196078431372,-31.92156862745105,-1637.0196078431372
2005.5098039215686,4.039215686274474,-1636.5098039215686
1967.0,40.0,-1636.0
2005.12,1.4600000000000009,-1636.02
2043.24,-37.08,-1636.04
2081.36,-75.62,-1636.06
2119.48,-114.16,-1636.08
2157.6,-152.7,-1636.1
2195.72,-191.24,-1636.12
2233.84,-229.77999999999997,-1636.14
2271.96,-268.32,-1636.16
2310.08,-306.86,-1636.18
2348.2,-345.4,-1636.2
2386.32,-383.94,-1636.22
2424.44,-422.48,-1636.24
2462.56,-461.02,-1636.26
2500.68,-499.55999999999995,-1636.28
2538.8,-538.1,-1636.3
2576.92,-576.64,-1636.32
2615.04,-615.18,-1636.34
2653.16,-653.72,-1636.36
2691.2799999999997,-692.26,-1636.38
2729.4,-730.8,-1636.4
2767.52,-769.34,-1636.42
2805.64,-807.88,-1636.44
2843.76,-846.42,-1636.46
2881.88,-884.96,-1636.48
2920.0,-923.5,-1636.5
2958.12,-962.04,-1636.52
2996.24,-1000.5799999999999,-1636.54
3034.3599999999997,-1039.12,-1636.56
3072.48,-1077.66,-1636.58
3110.6,-1116.2,-1636.6
3148.7200000000003,-1154.74,-1636.62
3186.84,-1193.28,-1636.64
3224.96,-1231.82,-1636.66
3263.08,-1270.36,-1636.68
3301.2,-1308.8999999999999,-1636.7
3339.3199999999997,-1347.44,-1636.72
3377.4399999999996,-1385.98,-1636.74
3415.56,-1424.52,-1636.76
3453.68,-1463.06,-1636.78
3491.8,-1501.6,-1636.8
3529.92,-1540.1399999999999,-1636.82
3568.04,-1578.68,-1636.84
3606.16,-1617.22,-1636.86
3644.2799999999997,-1655.76,-1636.88
3682.3999999999996,-1694.3,-1636.9
3720.52,-1732.84,-1636.92
3758.64,-1771.3799999999999,-1636.94
3796.7599999999998,-1809.92,-1636.96
3834.88,-1848.46,-1636.98
3873.0,-1887.0,-1637.0
3873.591836734694,-1841.2244897959183,-1597.2448979591836
3874.183673469388,-1795.4489795918366,-1557.4897959183672
3874.7755102040815,-1749.6734693877552,-1517.734693877551
3875.3673469387754,-1703.8979591836735,-1477.9795918367347
3875.9591836734694,-1658.1224489795918,-1438.2244897959183
3876.5510204081634,-1612.3469387755101,-1398.4693877551022
3877.1428571428573,-1566.5714285714284,-1358.7142857142858
3877.734693877551,-1520.795918367347,-1318.9591836734694
3878.326530612245,-1475.0204081632653,-1279.204081632653
3878.918367346939,-1429.2448979591836,-1239.4489795918366
3879.5102040816328,-1383.4693877551022,-1199.6938775510205
3880.1020408163267,-1337.6938775510203,-1159.938775510204
3880.6938775510203,-1291.9183673469388,-1120.1836734693877
3881.285714285714,-1246.142857142857,-1080.4285714285716
3881.877551020408,-1200.3673469387754,-1040.6734693877552
3882.469387755102,-1154.591836734694,-1000.9183673469388
3883.061224489796,-1108.816326530612,-961.1632653061224
3883.6530612244896,-1063.0408163265306,-921.4081632653061
3884.2448979591836,-1017.2653061224489,-881.6530612244899
3884.8367346938776,-971.4897959183673,-841.8979591836735
3885.4285714285716,-925.7142857142857,-802.1428571428571
3886.0204081632655,-879.9387755102041,-762.3877551020408
3886.612244897959,-834.1632653061224,-722.6326530612246
3887.204081632653,-788.3877551020407,-682.8775510204082
3887.795918367347,-742.612244897959,-643.1224489795918
3888.387755102041,-696.8367346938776,-603.3673469387754
3888.9795918367345,-651.0612244897959,-563.6122448979593
3889.5714285714284,-605.2857142857142,-523.8571428571429
3890.1632653061224,-559.5102040816325,-484.1020408163265
3890.7551020408164,-513.7346938775511,-444.34693877551035
3891.3469387755104,-467.9591836734694,-404.59183673469397
3891.938775510204,-422.1836734693877,-364.8367346938776
3892.530612244898,-376.40816326530603,-325.0816326530612
3893.122448979592,-330.63265306122435,-285.3265306122448
3893.714285714286,-284.8571428571429,-245.57142857142867
3894.3061224489797,-239.0816326530612,-205.8163265306123
3894.8979591836733,-193.30612244897952,-166.0612244897959
3895.4897959183672,-147.53061224489784,-126.30612244897975
3896.081632653061,-101.75510204081638,-86.55102040816337
3896.673469387755,-55.9795918367347,-46.795918367346985
3897.265306122449,-10.204081632653015,-7.040816326530603
3897.8571428571427,35.57142857142867,32.71428571428578
3898.4489795918366,81.34693877551035,72.46938775510193
3899.0408163265306,127.12244897959181,112.22448979591832
3899.6326530612246,172.89795918367372,151.9795918367347
3900.2244897959185,218.67346938775518,191.73469387755085
3900.816326530612,264.44897959183663,231.48979591836724
3901.408163265306,310.22448979591854,271.2448979591836
3902.0,356.0,311.0
3900.8703703703704,315.3333333333333,311.5
3899.740740740741,274.6666666666667,312.0
3898.6111111111113,234.0,312.5
3897.4814814814813,193.33333333333334,313.0
3896.3518518518517,152.66666666666669,313.5
3895.222222222222,112.0,314.0
3894.0925925925926,71.33333333333337,314.5
3892.962962962963,30.666666666666686,315.0
3891.8333333333335,-10.0,315.5
3890.703703703704,-50.66666666666663,316.0
3889.574074074074,-91.33333333333331,316.5
3888.4444444444443,-132.0,317.0
3887.314814814815,-172.66666666666663,317.5
3886.185185185185,-213.33333333333326,318.0
3885.0555555555557,-254.0,318.5
3883.925925925926,-294.66666666666663,319.0
3882.796296296296,-335.33333333333326,319.5
3881.6666666666665,-376.0,320.0
3880.537037037037,-416.66666666666663,320.5
3879.4074074074074,-457.33333333333326,321.0
3878.277777777778,-498.0,321.5
3877.1481481481483,-538.6666666666666,322.0
3876.0185185185187,-579.3333333333333,322.5
3874.8888888888887,-620.0,323.0
3873.759259259259,-660.6666666666666,323.5
3872.6296296296296,-701.3333333333333,324.0
3871.5,-742.0,324.5
3870.3703703703704,-782.6666666666665,325.0
3869.240740740741,-823.3333333333333,325.5
3868.1111111111113,-864.0,326.0
3866.9814814814813,-904.6666666666665,326.5
3865.8518518518517,-945.3333333333333,327.0
3864.722222222222,-986.0,327.5
3863.5925925925926,-1026.6666666666665,328.0
3862.462962962963,-1067.3333333333333,328.5
3861.3333333333335,-1108.0,329.0
3860.203703703704,-1148.6666666666665,329.5
3859.074074074074,-1189.3333333333333,330.0
3857.9444444444443,-1230.0,330.5
3856.814814814815,-1270.6666666666665,331.0
3855.685185185185,-1311.3333333333333,331.5
3854.5555555555557,-1352.0,332.0
3853.425925925926,-1392.6666666666665,332.5
3852.296296296296,-1433.3333333333333,333.0
3851.1666666666665,-1474.0,333.5
3850.037037037037,-1514.6666666666665,334.0
3848.9074074074074,-1555.3333333333333,334.5
3847.777777777778,-1596.0,335.0
3846.6481481481483,-1636.6666666666665,335.5
3845.5185185185187,-1677.3333333333333,336.0
3844.3888888888887,-1718.0,336.5
3843.259259259259,-1758.6666666666665,337.0
3842.1296296296296,-1799.333333333333,337.5
3841.0,-1840.0,338.0
3841.9583333333335,-1840.8958333333333,342.2291666666667
3842.9166666666665,-1841.7916666666667,346.4583333333333
3843.875,-1842.6875,350.6875
3844.8333333333335,-1843.5833333333333,354.9166666666667
3845.7916666666665,-1844.4791666666667,359.1458333333333
3846.75,-1845.375,363.375
3847.7083333333335,-1846.2708333333333,367.6041666666667
3848.6666666666665,-1847.1666666666667,371.8333333333333
3849.625,-1848.0625,376.0625
3850.5833333333335,-1848.9583333333333,380.2916666666667
3851.5416666666665,-1849.8541666666667,384.5208333333333
3852.5,-1850.75,388.75
3853.4583333333335,-1851.6458333333333,392.9791666666667
3854.4166666666665,-1852.5416666666667,397.2083333333333
3855.375,-1853.4375,401.4375
3856.3333333333335,-1854.3333333333333,405.6666666666667
3857.2916666666665,-1855.2291666666667,409.89583333333337
3858.25,-1856.125,414.125
3859.2083333333335,-1857.0208333333333,418.3541666666667
3860.1666666666665,-1857.9166666666667,422.58333333333337
3861.125,-1858.8125,426.8125
3862.0833333333335,-1859.7083333333333,431.0416666666667
3863.0416666666665,-1860.6041666666667,435.27083333333337
3864.0,-1861.5,439.5
3864.9583333333335,-1862.3958333333333,443.7291666666667
3865.9166666666665,-1863.2916666666667,447.95833333333337
3866.875,-1864.1875,452.1875
3867.8333333333335,-1865.0833333333333,456.4166666666667
3868.7916666666665,-1865.9791666666667,460.64583333333337
3869.75,-1866.875,464.875
3870.7083333333335,-1867.7708333333333,469.1041666666667
3871.6666666666665,-1868.6666666666667,473.33333333333337
3872.625,-1869.5625,477.5625
3873.5833333333335,-1870.4583333333333,481.7916666666667
3874.5416666666665,-1871.3541666666667,486.02083333333337
3875.5,-1872.25,490.25
3876.4583333333335,-1873.1458333333333,494.4791666666667
3877.4166666666665,-1874.0416666666667,498.70833333333337
3878.375,-1874.9375,502.9375
3879.3333333333335,-1875.8333333333333,507.1666666666667
3880.2916666666665,-1876.7291666666667,511.39583333333337
3881.25,-1877.625,515.625
3882.2083333333335,-1878.5208333333333,519.8541666666667
3883.1666666666665,-1879.4166666666667,524.0833333333334
3884.125,-1880.3125,528.3125
3885.0833333333335,-1881.2083333333333,532.5416666666667
3886.0416666666665,-1882.1041666666667,536.7708333333334
3887.0,-1883.0,541.0
3887.0,-1882.1836734693877,496.6938775510204
3887.0,-1881.3673469387754,452.38775510204084
3887.0,-1880.5510204081634,408.0816326530612
3887.0,-1879.734693877551,363.7755102040816
3887.0,-1878.9183673469388,319.46938775510205
3887.0,-1878.1020408163265,275.1632653061224
3887.0,-1877.2857142857142,230.85714285714283
3887.0,-1876.469387755102,186.55102040816325
3887.0,-1875.6530612244899,142.24489795918367
3887.0,-1874.8367346938776,97.9387755102041
3887.0,-1874.0204081632653,53.63265306122446
3887.0,-1873.204081632653,9.326530612244824
3887.0,-1872.3877551020407,-34.9795918367347
3887.0,-1871.5714285714287,-79.28571428571433
3887.0,-1870.7551020408164,-123.59183673469386
3887.0,-1869.938775510204,-167.8979591836735
3887.0,-1869.1224489795918,-212.20408163265313
3887.0,-1868.3061224489795,-256.51020408163265
3887.0,-1867.4897959183672,-300.8163265306123
3887.0,-1866.6734693877552,-345.1224489795918
3887.0,-1865.857142857143,-389.42857142857144
3887.0,-1865.0408163265306,-433.7346938775511
3887.0,-1864.2244897959183,-478.0408163265306
3887.0,-1863.408163265306,-522.3469387755104
3887.0,-1862.591836734694,-566.6530612244899
3887.0,-1861.7755102040817,-610.9591836734694
3887.0,-1860.9591836734694,-655.2653061224489
3887.0,-1860.142857142857,-699.5714285714287
3887.0,-1859.3265306122448,-743.8775510204082
3887.0,-1858.5102040816328,-788.1836734693877
3887.0,-1857.6938775510205,-832.4897959183675
3887.0,-1856.8775510204082,-876.795918367347
3887.0,-1856.061224489796,-921.1020408163265
3887.0,-1855.2448979591836,-965.4081632653063
3887.0,-1854.4285714285713,-1009.7142857142858
3887.0,-1853.6122448979593,-1054.0204081632653
3887.0,-1852.795918367347,-1098.326530612245
3887.0,-1851.9795918367347,-1142.6326530612246
3887.0,-1851.1632653061224,-1186.938775510204
3887.0,-1850.3469387755101,-1231.2448979591836
3887.0,-1849.530612244898,-1275.5510204081634
3887.0,-1848.7142857142858,-1319.857142857143
3887.0,-1847.8979591836735,-1364.1632653061224
3887.0,-1847.0816326530612,-1408.4693877551022
3887.0,-1846.265306122449,-1452.7755102040817
3887.0,-1845.4489795918366,-1497.0816326530612
3887.0,-1844.6326530612246,-1541.387755102041
3887.0,-1843.8163265306123,-1585.6938775510207
3887.0,-1843.0,-1630.0
3887.0188679245284,-1842.433962264151,-1593.3396226415093
3887.0377358490564,-1841.867924528302,-1556.6792452830189
3887.056603773585,-1841.301886792453,-1520.0188679245284
3887.0754716981132,-1840.7358490566037,-1483.3584905660377
3887.0943396226417,-1840.1698113207547,-1446.698113207547
3887.1132075471696,-1839.6037735849056,-1410.0377358490566
3887.132075471698,-1839.0377358490566,-1373.3773584905662
3887.1509433962265,-1838.4716981132076,-1336.7169811320755
3887.169811320755,-1837.9056603773586,-1300.0566037735848
3887.188679245283,-1837.3396226415093,-1263.3962264150944
3887.2075471698113,-1836.7735849056603,-1226.735849056604
3887.2264150943397,-1836.2075471698113,-1190.0754716981132
3887.245283018868,-1835.6415094339623,-1153.4150943396226
3887.264150943396,-1835.0754716981132,-1116.754716981132
3887.2830188679245,-1834.5094339622642,-1080.0943396226417
3887.301886792453,-1833.9433962264152,-1043.433962264151
3887.3207547169814,-1833.377358490566,-1006.7735849056604
3887.3396226415093,-1832.811320754717,-970.1132075471698
3887.3584905660377,-1832.245283018868,-933.4528301886793
3887.377358490566,-1831.6792452830189,-896.7924528301887
3887.396226415094,-1831.1132075471698,-860.1320754716982
3887.4150943396226,-1830.5471698113208,-823.4716981132076
3887.433962264151,-1829.9811320754718,-786.811320754717
3887.4528301886794,-1829.4150943396226,-750.1509433962265
3887.4716981132074,-1828.8490566037735,-713.4905660377359
3887.490566037736,-1828.2830188679245,-676.8301886792453
3887.509433962264,-1827.7169811320755,-640.1698113207548
3887.5283018867926,-1827.1509433962265,-603.5094339622642
3887.5471698113206,-1826.5849056603774,-566.8490566037735
3887.566037735849,-1826.0188679245282,-530.1886792452831
3887.5849056603774,-1825.4528301886792,-493.52830188679263
3887.603773584906,-1824.8867924528302,-456.86792452830196
3887.622641509434,-1824.3207547169811,-420.2075471698113
3887.6415094339623,-1823.754716981132,-383.5471698113208
3887.6603773584907,-1823.188679245283,-346.8867924528304
3887.6792452830186,-1822.622641509434,-310.2264150943397
3887.698113207547,-1822.0566037735848,-273.566037735849
3887.7169811320755,-1821.4905660377358,-236.90566037735857
3887.735849056604,-1820.9245283018868,-200.24528301886812
3887.754716981132,-1820.3584905660377,-163.58490566037744
3887.7735849056603,-1819.7924528301887,-126.92452830188677
3887.7924528301887,-1819.2264150943397,-90.26415094339632
3887.811320754717,-1818.6603773584907,-53.603773584905866
3887.830188679245,-1818.0943396226414,-16.94339622641519
3887.8490566037735,-1817.5283018867924,19.71698113207549
3887.867924528302,-1816.9622641509434,56.37735849056594
3887.8867924528304,-1816.3962264150944,93.03773584905639
3887.9056603773583,-1815.8301886792453,129.69811320754707
3887.9245283018868,-1815.2641509433963,166.35849056603774
3887.943396226415,-1814.698113207547,203.0188679245282
3887.9622641509436,-1814.132075471698,239.67924528301864
3887.9811320754716,-1813.566037735849,276.3396226415093
3888.0,-1813.0,313.0
3849.1020408163267,-1734.265306122449,269.81632653061223
3810.204081632653,-1655.5306122448978,226.6326530612245
3771.3061224489797,-1576.795918367347,183.44897959183675
3732.408163265306,-1498.061224489796,140.26530612244898
3693.5102040816328,-1419.3265306122448,97.0816326530612
3654.612244897959,-1340.591836734694,53.89795918367349
3615.714285714286,-1261.857142857143,10.714285714285722
3576.816326530612,-1183.1224489795918,-32.46938775510205
3537.918367346939,-1104.3877551020407,-75.65306122448982
3499.0204081632655,-1025.6530612244896,-118.83673469387759
3460.122448979592,-946.9183673469388,-162.0204081632653
3421.224489795918,-868.1836734693877,-205.20408163265301
3382.326530612245,-789.4489795918366,-248.38775510204084
3343.4285714285716,-710.7142857142858,-291.57142857142856
3304.530612244898,-631.9795918367347,-334.7551020408164
3265.6326530612246,-553.2448979591836,-377.9387755102041
3226.734693877551,-474.51020408163254,-421.1224489795918
3187.8367346938776,-395.77551020408146,-464.30612244897964
3148.9387755102043,-317.0408163265306,-507.48979591836735
3110.0408163265306,-238.30612244897952,-550.6734693877552
3071.142857142857,-159.57142857142844,-593.8571428571429
3032.2448979591836,-80.83673469387759,-637.0408163265306
2993.3469387755104,-2.1020408163265074,-680.2244897959184
2954.4489795918366,76.63265306122457,-723.408163265306
2915.5510204081634,155.36734693877565,-766.591836734694
2876.6530612244896,234.10204081632673,-809.7755102040817
2837.7551020408164,312.8367346938776,-852.9591836734694
2798.857142857143,391.57142857142844,-896.1428571428571
2759.9591836734694,470.30612244897975,-939.3265306122448
2721.0612244897957,549.0408163265306,-982.5102040816328
2682.1632653061224,627.7755102040819,-1025.6938775510205
2643.265306122449,706.5102040816328,-1068.8775510204082
2604.3673469387754,785.2448979591836,-1112.061224489796
2565.4693877551017,863.9795918367349,-1155.2448979591836
2526.5714285714284,942.7142857142858,-1198.4285714285716
2487.673469387755,1021.4489795918371,-1241.6122448979593
2448.7755102040815,1100.183673469388,-1284.795918367347
2409.877551020408,1178.9183673469388,-1327.9795918367347
2370.9795918367345,1257.65306122449,-1371.1632653061224
2332.081632653061,1336.387755102041,-1414.3469387755104
2293.183673469388,1415.1224489795918,-1457.530612244898
2254.285714285714,1493.8571428571431,-1500.7142857142858
2215.3877551020405,1572.591836734694,-1543.8979591836735
2176.4897959183672,1651.3265306122448,-1587.0816326530612
2137.591836734694,1730.0612244897961,-1630.265306122449
2098.6938775510203,1808.795918367347,-1673.4489795918369
2059.7959183673465,1887.5306122448983,-1716.6326530612246
2020.8979591836733,1966.2653061224491,-1759.816326530612
1982.0,2045.0,-1803.0
2022.1702127659573,1963.212765957447,-1799.8936170212767
2062.3404255319147,1881.4255319148936,-1796.787234042553
2102.5106382978724,1799.6382978723404,-1793.6808510638298
2142.68085106383,1717.851063829787,-1790.5744680851064
2182.851063829787,1636.063829787234,-1787.468085106383
2223.021276595745,1554.276595744681,-1784.3617021276596
2263.191489361702,1472.4893617021276,-1781.2553191489362
2303.3617021276596,1390.7021276595744,-1778.1489361702127
2343.531914893617,1308.9148936170213,-1775.0425531914893
2383.702127659574,1227.127659574468,-1771.936170212766
2423.872340425532,1145.340425531915,-1768.8297872340427
2464.0425531914893,1063.5531914893618,-1765.723404255319
2504.2127659574467,981.7659574468084,-1762.6170212765958
2544.3829787234044,899.9787234042553,-1759.5106382978724
2584.553191489362,818.191489361702,-1756.404255319149
2624.723404255319,736.4042553191489,-1753.2978723404256
2664.8936170212764,654.6170212765958,-1750.1914893617022
2705.0638297872338,572.8297872340424,-1747.0851063829787
2745.2340425531916,491.04255319148933,-1743.9787234042553
2785.404255319149,409.255319148936,-1740.872340425532
2825.574468085106,327.4680851063829,-1737.7659574468084
2865.744680851064,245.68085106382978,-1734.659574468085
2905.9148936170213,163.89361702127644,-1731.5531914893618
2946.0851063829787,82.10638297872333,-1728.4468085106382
2986.255319148936,0.31914893617022244,-1725.340425531915
3026.4255319148933,-81.46808510638311,-1722.2340425531916
3066.595744680851,-163.25531914893645,-1719.127659574468
3106.7659574468084,-245.04255319148933,-1716.0212765957447
3146.936170212766,-326.82978723404267,-1712.9148936170213
3187.1063829787236,-408.617021276596,-1709.8085106382978
3227.276595744681,-490.4042553191489,-1706.7021276595744
3267.446808510638,-572.1914893617022,-1703.595744680851
3307.6170212765956,-653.9787234042556,-1700.4893617021276
3347.787234042553,-735.7659574468084,-1697.3829787234042
3387.9574468085107,-817.5531914893618,-1694.276595744681
3428.127659574468,-899.3404255319151,-1691.1702127659576
3468.2978723404253,-981.127659574468,-1688.063829787234
3508.468085106383,-1062.9148936170213,-1684.9574468085107
3548.6382978723404,-1144.7021276595747,-1681.8510638297873
3588.808510638298,-1226.489361702128,-1678.7446808510638
3628.978723404255,-1308.276595744681,-1675.6382978723404
3669.1489361702124,-1390.0638297872342,-1672.531914893617
3709.31914893617,-1471.8510638297876,-1669.4255319148936
3749.4893617021276,-1553.6382978723404,-1666.3191489361702
3789.659574468085,-1635.4255319148938,-1663.212765957447
3829.8297872340427,-1717.2127659574471,-1660.1063829787233
3870.0,-1799.0,-1657.0
3871.2363636363634,-1800.1272727272728,-1656.3272727272727
3872.4727272727273,-1801.2545454545455,-1655.6545454545455
3873.7090909090907,-1802.3818181818183,-1654.9818181818182
3874.9454545454546,-1803.509090909091,-1654.3090909090909
3876.181818181818,-1804.6363636363637,-1653.6363636363637
3877.418181818182,-1805.7636363636364,-1652.9636363636364
3878.6545454545453,-1806.8909090909092,-1652.290909090909
3879.890909090909,-1808.0181818181818,-1651.6181818181817
3881.1272727272726,-1809.1454545454546,-1650.9454545454546
3882.3636363636365,-1810.2727272727273,-1650.2727272727273
3883.6,-1811.4,-1649.6
3884.836363636364,-1812.5272727272727,-1648.9272727272728
3886.072727272727,-1813.6545454545455,-1648.2545454545455
3887.309090909091,-1814.7818181818182,-1647.581818181818
3888.5454545454545,-1815.909090909091,-1646.909090909091
3889.7818181818184,-1817.0363636363636,-1646.2363636363636
3891.018181818182,-1818.1636363636364,-1645.5636363636363
3892.2545454545457,-1819.290909090909,-1644.8909090909092
3893.490909090909,-1820.418181818182,-1644.2181818181818
3894.7272727272725,-1821.5454545454545,-1643.5454545454545
3895.9636363636364,-1822.6727272727273,-1642.8727272727272
3897.2,-1823.8,-1642.2
3898.4363636363637,-1824.9272727272728,-1641.5272727272727
3899.672727272727,-1826.0545454545454,-1640.8545454545454
3900.909090909091,-1827.1818181818182,-1640.1818181818182
3902.1454545454544,-1828.3090909090909,-1639.509090909091
3903.3818181818183,-1829.4363636363637,-1638.8363636363636
3904.6181818181817,-1830.5636363636363,-1638.1636363636364
3905.8545454545456,-1831.6909090909091,-1637.490909090909
3907.090909090909,-1832.8181818181818,-1636.8181818181818
3908.327272727273,-1833.9454545454546,-1636.1454545454546
3909.5636363636363,-1835.0727272727272,-1635.4727272727273
3910.8,-1836.2,-1634.8
3912.0363636363636,-1837.3272727272727,-1634.1272727272728
3913.2727272727275,-1838.4545454545455,-1633.4545454545455
3914.509090909091,-1839.581818181818,-1632.7818181818182
3915.7454545454543,-1840.709090909091,-1632.1090909090908
3916.981818181818,-1841.8363636363636,-1631.4363636363637
3918.2181818181816,-1842.9636363636364,-1630.7636363636364
3919.4545454545455,-1844.090909090909,-1630.090909090909
3920.690909090909,-1845.2181818181818,-1629.418181818182
3921.927272727273,-1846.3454545454545,-1628.7454545454545
3923.163636363636,-1847.4727272727273,-1628.0727272727272
3924.4,-1848.6,-1627.4
3925.6363636363635,-1849.7272727272727,-1626.7272727272727
3926.8727272727274,-1850.8545454545454,-1626.0545454545454
3928.109090909091,-1851.9818181818182,-1625.3818181818183
3929.3454545454547,-1853.1090909090908,-1624.709090909091
3930.581818181818,-1854.2363636363636,-1624.0363636363636
3931.818181818182,-1855.3636363636363,-1623.3636363636363
3933.0545454545454,-1856.490909090909,-1622.6909090909091
3934.2909090909093,-1857.6181818181817,-1622.0181818181818
3935.5272727272727,-1858.7454545454545,-1621.3454545454545
3936.7636363636366,-1859.8727272727272,-1620.6727272727273
3938.0,-1861.0,-1620.0
3938.148936170213,-1861.872340425532,-1619.212765957447
3938.2978723404253,-1862.7446808510638,-1618.4255319148936
3938.446808510638,-1863.6170212765958,-1617.6382978723404
3938.595744680851,-1864.4893617021276,-1616.8510638297873
3938.744680851064,-1865.3617021276596,-1616.063829787234
3938.8936170212764,-1866.2340425531916,-1615.276595744681
3939.0425531914893,-1867.1063829787233,-1614.4893617021276
3939.191489361702,-1867.9787234042553,-1613.7021276595744
3939.340425531915,-1868.8510638297873,-1612.9148936170213
3939.4893617021276,-1869.723404255319,-1612.127659574468
3939.6382978723404,-1870.595744680851,-1611.340425531915
3939.7872340425533,-1871.468085106383,-1610.5531914893618
3939.936170212766,-1872.340425531915,-1609.7659574468084
3940.0851063829787,-1873.212765957447,-1608.9787234042553
3940.2340425531916,-1874.0851063829787,-1608.1914893617022
3940.3829787234044,-1874.9574468085107,-1607.404255319149
3940.531914893617,-1875.8297872340424,-1606.6170212765958
3940.68085106383,-1876.7021276595744,-1605.8297872340424
3940.8297872340427,-1877.5744680851064,-1605.0425531914893
3940.978723404255,-1878.4468085106382,-1604.2553191489362
3941.127659574468,-1879.3191489361702,-1603.468085106383
3941.276595744681,-1880.1914893617022,-1602.6808510638298
3941.425531914894,-1881.063829787234,-1601.8936170212767
3941.574468085106,-1881.936170212766,-1601.1063829787233
3941.723404255319,-1882.8085106382978,-1600.3191489361702
3941.872340425532,-1883.6808510638298,-1599.531914893617
3942.021276595745,-1884.5531914893618,-1598.7446808510638
3942.1702127659573,-1885.4255319148936,-1597.9574468085107
3942.31914893617,-1886.2978723404256,-1597.1702127659573
3942.468085106383,-1887.1702127659576,-1596.3829787234042
3942.6170212765956,-1888.0425531914893,-1595.595744680851
3942.7659574468084,-1888.9148936170213,-1594.8085106382978
3942.9148936170213,-1889.787234042553,-1594.0212765957447
3943.063829787234,-1890.659574468085,-1593.2340425531916
3943.2127659574467,-1891.531914893617,-1592.4468085106382
3943.3617021276596,-1892.404255319149,-1591.659574468085
3943.5106382978724,-1893.276595744681,-1590.872340425532
3943.659574468085,-1894.1489361702127,-1590.0851063829787
3943.808510638298,-1895.0212765957447,-1589.2978723404256
3943.9574468085107,-1895.8936170212767,-1588.5106382978724
3944.1063829787236,-1896.7659574468084,-1587.723404255319
3944.255319148936,-1897.6382978723404,-1586.936170212766
3944.404255319149,-1898.5106382978724,-1586.1489361702127
3944.553191489362,-1899.3829787234042,-1585.3617021276596
3944.7021276595747,-1900.2553191489362,-1584.5744680851064
3944.851063829787,-1901.127659574468,-1583.787234042553
3945.0,-1902.0,-1583.0
3903.8979591836733,-1862.4489795918366,-1582.4489795918366
3862.795918367347,-1822.8979591836735,-1581.8979591836735
3821.6938775510203,-1783.3469387755101,-1581.3469387755101
3780.591836734694,-1743.795918367347,-1580.795918367347
3739.4897959183672,-1704.2448979591836,-1580.2448979591836
3698.387755102041,-1664.6938775510205,-1579.6938775510205
3657.285714285714,-1625.142857142857,-1579.142857142857
3616.183673469388,-1585.591836734694,-1578.591836734694
3575.081632653061,-1546.0408163265306,-1578.0408163265306
3533.9795918367345,-1506.4897959183672,-1577.4897959183672
3492.877551020408,-1466.938775510204,-1576.938775510204
3451.775510204082,-1427.3877551020407,-1576.3877551020407
3410.673469387755,-1387.8367346938776,-1575.8367346938776
3369.5714285714284,-1348.2857142857142,-1575.2857142857142
3328.469387755102,-1308.7346938775509,-1574.734693877551
3287.3673469387754,-1269.1836734693877,-1574.1836734693877
3246.265306122449,-1229.6326530612246,-1573.6326530612246
3205.1632653061224,-1190.0816326530612,-1573.0816326530612
3164.0612244897957,-1150.5306122448978,-1572.530612244898
3122.9591836734694,-1110.9795918367347,-1571.9795918367347
3081.857142857143,-1071.4285714285713,-1571.4285714285713
3040.7551020408164,-1031.8775510204082,-1570.8775510204082
2999.6530612244896,-992.3265306122448,-1570.3265306122448
2958.5510204081634,-952.7755102040816,-1569.7755102040817
2917.448979591837,-913.2244897959183,-1569.2244897959183
2876.3469387755104,-873.673469387755,-1568.6734693877552
2835.2448979591836,-834.1224489795918,-1568.1224489795918
2794.142857142857,-794.5714285714284,-1567.5714285714287
2753.0408163265306,-755.0204081632653,-1567.0204081632653
2711.9387755102043,-715.4693877551019,-1566.469387755102
2670.8367346938776,-675.9183673469388,-1565.9183673469388
2629.734693877551,-636.3673469387754,-1565.3673469387754
2588.6326530612246,-596.8163265306121,-1564.8163265306123
2547.5306122448983,-557.2653061224489,-1564.265306122449
2506.4285714285716,-517.7142857142856,-1563.7142857142858
2465.326530612245,-478.1632653061224,-1563.1632653061224
2424.2244897959185,-438.61224489795904,-1562.6122448979593
2383.122448979592,-399.0612244897959,-1562.061224489796
2342.0204081632655,-359.51020408163254,-1561.5102040816328
2300.918367346939,-319.9591836734694,-1560.9591836734694
2259.816326530612,-280.40816326530603,-1560.408163265306
2218.714285714286,-240.85714285714266,-1559.857142857143
2177.6122448979595,-201.30612244897952,-1559.3061224489795
2136.5102040816328,-161.75510204081615,-1558.7551020408164
2095.408163265306,-122.20408163265301,-1558.204081632653
2054.3061224489797,-82.65306122448965,-1557.6530612244899
2013.2040816326532,-43.10204081632651,-1557.1020408163265
1972.1020408163267,-3.55102040816314,-1556.5510204081634
1931.0,36.0,-1556.0
1967.1296296296296,36.7962962962963,-1557.2222222222222
2003.2592592592594,37.592592592592595,-1558.4444444444443
2039.388888888889,38.388888888888886,-1559.6666666666667
2075.5185185185187,39.18518518518518,-1560.888888888889
2111.6481481481483,39.98148148148148,-1562.111111111111
2147.777777777778,40.77777777777778,-1563.3333333333333
2183.9074074074074,41.574074074074076,-1564.5555555555557
2220.037037037037,42.37037037037037,-1565.7777777777778
2256.1666666666665,43.166666666666664,-1567.0
2292.296296296296,43.96296296296296,-1568.2222222222222
2328.425925925926,44.75925925925926,-1569.4444444444443
2364.5555555555557,45.55555555555556,-1570.6666666666667
2400.685185185185,46.35185185185185,-1571.888888888889
2436.814814814815,47.14814814814815,-1573.111111111111
2472.9444444444443,47.94444444444444,-1574.3333333333333
2509.074074074074,48.74074074074074,-1575.5555555555557
2545.2037037037035,49.53703703703704,-1576.7777777777778
2581.333333333333,50.33333333333333,-1578.0
2617.462962962963,51.12962962962963,-1579.2222222222222
2653.5925925925926,51.925925925925924,-1580.4444444444443
2689.722222222222,52.72222222222222,-1581.6666666666667
2725.8518518518517,53.51851851851852,-1582.888888888889
2761.9814814814813,54.31481481481481,-1584.111111111111
2798.1111111111113,55.111111111111114,-1585.3333333333333
2834.240740740741,55.907407407407405,-1586.5555555555557
2870.3703703703704,56.7037037037037,-1587.7777777777778
2906.5,57.5,-1589.0
2942.6296296296296,58.2962962962963,-1590.2222222222222
2978.759259259259,59.092592592592595,-1591.4444444444443
3014.8888888888887,59.888888888888886,-1592.6666666666667
3051.0185185185182,60.68518518518518,-1593.888888888889
3087.148148148148,61.48148148148148,-1595.111111111111
3123.2777777777774,62.27777777777778,-1596.3333333333333
3159.4074074074074,63.074074074074076,-1597.5555555555557
3195.537037037037,63.87037037037037,-1598.7777777777778
3231.6666666666665,64.66666666666666,-1600.0
3267.796296296296,65.46296296296296,-1601.2222222222222
3303.925925925926,66.25925925925927,-1602.4444444444443
3340.0555555555557,67.05555555555556,-1603.6666666666667
3376.185185185185,67.85185185185185,-1604.888888888889
3412.314814814815,68.64814814814815,-1606.111111111111
3448.4444444444443,69.44444444444444,-1607.3333333333333
3484.574074074074,70.24074074074073,-1608.5555555555557
3520.7037037037035,71.03703703703704,-1609.7777777777778
3556.833333333333,71.83333333333334,-1611.0
3592.9629629629626,72.62962962962962,-1612.2222222222222
3629.092592592592,73.42592592592592,-1613.4444444444443
3665.222222222222,74.22222222222223,-1614.6666666666667
3701.3518518518517,75.01851851851852,-1615.888888888889
3737.4814814814813,75.81481481481481,-1617.111111111111
3773.611111111111,76.61111111111111,-1618.3333333333333
3809.740740740741,77.4074074074074,-1619.5555555555557
3845.8703703703704,78.2037037037037,-1620.7777777777778
3882.0,79.0,-1622.0
3881.566037735849,78.9245283018868,-1621.811320754717
3881.132075471698,78.84905660377359,-1621.622641509434
3880.698113207547,78.77358490566037,-1621.433962264151
3880.264150943396,78.69811320754717,-1621.245283018868
3879.830188679245,78.62264150943396,-1621.0566037735848
3879.396226415094,78.54716981132076,-1620.867924528302
3878.9622641509436,78.47169811320755,-1620.6792452830189
3878.5283018867926,78.39622641509433,-1620.4905660377358
3878.0943396226417,78.32075471698113,-1620.301886792453
3877.6603773584907,78.24528301886792,-1620.1132075471698
3877.2264150943397,78.16981132075472,-1619.9245283018868
3876.7924528301887,78.09433962264151,-1619.7358490566037
3876.3584905660377,78.01886792452831,-1619.5471698113208
3875.9245283018868,77.94339622641509,-1619.3584905660377
3875.490566037736,77.86792452830188,-1619.1698113207547
3875.056603773585,77.79245283018868,-1618.9811320754718
3874.622641509434,77.71698113207547,-1618.7924528301887
3874.188679245283,77.64150943396227,-1618.6037735849056
3873.754716981132,77.56603773584905,-1618.4150943396226
3873.3207547169814,77.49056603773585,-1618.2264150943397
3872.8867924528304,77.41509433962264,-1618.0377358490566
3872.4528301886794,77.33962264150944,-1617.8490566037735
3872.0188679245284,77.26415094339623,-1617.6603773584907
3871.5849056603774,77.18867924528301,-1617.4716981132076
3871.1509433962265,77.11320754716981,-1617.2830188679245
3870.7169811320755,77.0377358490566,-1617.0943396226414
3870.2830188679245,76.9622641509434,-1616.9056603773586
3869.8490566037735,76.88679245283019,-1616.7169811320755
3869.4150943396226,76.81132075471699,-1616.5283018867924
3868.9811320754716,76.73584905660377,-1616.3396226415093
3868.5471698113206,76.66037735849056,-1616.1509433962265
3868.1132075471696,76.58490566037736,-1615.9622641509434
3867.6792452830186,76.50943396226415,-1615.7735849056603
3867.245283018868,76.43396226415095,-1615.5849056603774
3866.811320754717,76.35849056603773,-1615.3962264150944
3866.377358490566,76.28301886792453,-1615.2075471698113
3865.943396226415,76.20754716981132,-1615.0188679245282
3865.509433962264,76.13207547169812,-1614.8301886792453
3865.0754716981132,76.05660377358491,-1614.6415094339623
3864.6415094339623,75.98113207547169,-1614.4528301886792
3864.2075471698113,75.90566037735849,-1614.2641509433963
3863.7735849056603,75.83018867924528,-1614.0754716981132
3863.3396226415093,75.75471698113208,-1613.8867924528302
3862.9056603773583,75.67924528301887,-1613.698113207547
3862.4716981132074,75.60377358490567,-1613.5094339622642
3862.0377358490564,75.52830188679245,-1613.3207547169811
3861.603773584906,75.45283018867924,-1613.132075471698
3861.169811320755,75.37735849056604,-1612.9433962264152
3860.735849056604,75.30188679245283,-1612.754716981132
3860.301886792453,75.22641509433963,-1612.566037735849
3859.867924528302,75.15094339622641,-1612.377358490566
3859.433962264151,75.0754716981132,-1612.188679245283
3859.0,75.0,-1612.0
3858.953488372093,74.30232558139535,-1612.0
3858.906976744186,73.6046511627907,-1612.0
3858.860465116279,72.90697674418604,-1612.0
3858.813953488372,72.20930232558139,-1612.0
3858.767441860465,71.51162790697674,-1612.0
3858.720930232558,70.81395348837209,-1612.0
3858.6744186046512,70.11627906976744,-1612.0
3858.6279069767443,69.4186046511628,-1612.0
3858.5813953488373,68.72093023255815,-1612.0
3858.5348837209303,68.02325581395348,-1612.0
3858.4883720930234,67.32558139534883,-1612.0
3858.4418604651164,66.62790697674419,-1612.0
3858.3953488372094,65.93023255813954,-1612.0
3858.3488372093025,65.23255813953489,-1612.0
3858.3023255813955,64.53488372093022,-1612.0
3858.2558139534885,63.83720930232558,-1612.0
3858.2093023255816,63.13953488372093,-1612.0
3858.1627906976746,62.44186046511628,-1612.0
3858.1162790697676,61.74418604651163,-1612.0
3858.0697674418607,61.04651162790698,-1612.0
3858.0232558139537,60.348837209302324,-1612.0
3857.9767441860463,59.651162790697676,-1612.0
3857.9302325581393,58.95348837209302,-1612.0
3857.8837209302324,58.25581395348837,-1612.0
3857.8372093023254,57.55813953488372,-1612.0
3857.7906976744184,56.86046511627907,-1612.0
3857.7441860465115,56.16279069767442,-1612.0
3857.6976744186045,55.46511627906977,-1612.0
3857.6511627906975,54.76744186046511,-1612.0
3857.6046511627906,54.06976744186046,-1612.0
3857.5581395348836,53.372093023255815,-1612.0
3857.5116279069766,52.674418604651166,-1612.0
3857.4651162790697,51.97674418604651,-1612.0
3857.4186046511627,51.27906976744186,-1612.0
3857.3720930232557,50.581395348837205,-1612.0
3857.3255813953488,49.883720930232556,-1612.0
3857.279069767442,49.18604651162791,-1612.0
3857.232558139535,48.48837209302326,-1612.0
3857.186046511628,47.7906976744186,-1612.0
3857.139534883721,47.093023255813954,-1612.0
3857.093023255814,46.3953488372093,-1612.0
3857.046511627907,45.69767441860465,-1612.0
3857.0,45.0,-1612.0
3857.7924528301887,45.9622641509434,-1612.4905660377358
3858.5849056603774,46.924528301886795,-1612.9811320754718
3859.377358490566,47.886792452830186,-1613.4716981132076
3860.169811320755,48.84905660377358,-1613.9622641509434
3860.9622641509436,49.81132075471698,-1614.4528301886792
3861.754716981132,50.77358490566038,-1614.9433962264152
3862.5471698113206,51.735849056603776,-1615.433962264151
3863.3396226415093,52.698113207547166,-1615.9245283018868
3864.132075471698,53.660377358490564,-1616.4150943396226
3864.9245283018868,54.62264150943396,-1616.9056603773586
3865.7169811320755,55.58490566037736,-1617.3962264150944
3866.509433962264,56.54716981132076,-1617.8867924528302
3867.301886792453,57.509433962264154,-1618.377358490566
3868.0943396226417,58.47169811320755,-1618.867924528302
3868.8867924528304,59.43396226415094,-1619.3584905660377
3869.6792452830186,60.39622641509434,-1619.8490566037735
3870.4716981132074,61.35849056603774,-1620.3396226415093
3871.264150943396,62.32075471698113,-1620.8301886792453
3872.056603773585,63.283018867924525,-1621.3207547169811
3872.8490566037735,64.24528301886792,-1621.811320754717
3873.6415094339623,65.20754716981132,-1622.301886792453
3874.433962264151,66.16981132075472,-1622.7924528301887
3875.2264150943397,67.13207547169812,-1623.2830188679245
3876.0188679245284,68.09433962264151,-1623.7735849056603
3876.811320754717,69.05660377358491,-1624.2641509433963
3877.603773584906,70.01886792452831,-1624.754716981132
3878.396226415094,70.98113207547169,-1625.245283018868
3879.188679245283,71.9433962264151,-1625.7358490566037
3879.9811320754716,72.90566037735849,-1626.2264150943397
3880.7735849056603,73.86792452830188,-1626.7169811320755
3881.566037735849,74.83018867924528,-1627.2075471698113
3882.3584905660377,75.79245283018868,-1627.698113207547
3883.1509433962265,76.75471698113208,-1628.188679245283
3883.943396226415,77.71698113207547,-1628.6792452830189
3884.735849056604,78.67924528301887,-1629.1698113207547
3885.5283018867926,79.64150943396226,-1629.6603773584907
3886.3207547169814,80.60377358490567,-1630.1509433962265
3887.1132075471696,81.56603773584905,-1630.6415094339623
3887.9056603773583,82.52830188679246,-1631.132075471698
3888.698113207547,83.49056603773585,-1631.622641509434
3889.490566037736,84.45283018867924,-1632.1132075471698
3890.2830188679245,85.41509433962264,-1632.6037735849056
3891.0754716981132,86.37735849056604,-1633.0943396226414
3891.867924528302,87.33962264150944,-1633.5849056603774
3892.6603773584907,88.30188679245283,-1634.0754716981132
3893.4528301886794,89.26415094339623,-1634.566037735849
3894.245283018868,90.22641509433961,-1635.0566037735848
3895.0377358490564,91.18867924528303,-1635.5471698113208
3895.830188679245,92.15094339622641,-1636.0377358490566
3896.622641509434,93.11320754716982,-1636.5283018867924
3897.4150943396226,94.0754716981132,-1637.0188679245282
3898.2075471698113,95.0377358490566,-1637.5094339622642
3899.0,96.0,-1638.0
3899.4583333333335,54.5625,-1637.5
3899.9166666666665,13.125,-1637.0
3900.375,-28.3125,-1636.5
3900.8333333333335,-69.75,-1636.0
3901.2916666666665,-111.1875,-1635.5
3901.75,-152.625,-1635.0
3902.2083333333335,-194.0625,-1634.5
3902.6666666666665,-235.5,-1634.0
3903.125,-276.9375,-1633.5
3903.5833333333335,-318.375,-1633.0
3904.0416666666665,-359.8125,-1632.5
3904.5,-401.25,-1632.0
3904.9583333333335,-442.6875,-1631.5
3905.4166666666665,-484.125,-1631.0
3905.875,-525.5625,-1630.5
3906.3333333333335,-567.0,-1630.0
3906.7916666666665,-608.4375,-1629.5
3907.25,-649.875,-1629.0
3907.7083333333335,-691.3125,-1628.5
3908.1666666666665,-732.75,-1628.0
3908.625,-774.1875,-1627.5
3909.0833333333335,-815.625,-1627.0
3909.5416666666665,-857.0625,-1626.5
3910.0,-898.5,-1626.0
3910.4583333333335,-939.9375,-1625.5
3910.9166666666665,-981.375,-1625.0
3911.375,-1022.8125,-1624.5
3911.8333333333335,-1064.25,-1624.0
3912.2916666666665,-1105.6875,-1623.5
3912.75,-1147.125,-1623.0
3913.2083333333335,-1188.5625,-1622.5
3913.6666666666665,-1230.0,-1622.0
3914.125,-1271.4375,-1621.5
3914.5833333333335,-1312.875,-1621.0
3915.0416666666665,-1354.3125,-1620.5
3915.5,-1395.75,-1620.0
3915.9583333333335,-1437.1875,-1619.5
3916.4166666666665,-1478.625,-1619.0
3916.875,-1520.0625,-1618.5
3917.3333333333335,-1561.5,-1618.0
3917.7916666666665,-1602.9375,-1617.5
3918.25,-1644.375,-1617.0
3918.7083333333335,-1685.8125,-1616.5
3919.1666666666665,-1727.25,-1616.0
3919.625,-1768.6875,-1615.5
3920.0833333333335,-1810.125,-1615.0
3920.5416666666665,-1851.5625,-1614.5
3921.0,-1893.0,-1614.0
3921.0833333333335,-1893.0833333333333,-1614.0625
3921.1666666666665,-1893.1666666666667,-1614.125
3921.25,-1893.25,-1614.1875
3921.3333333333335,-1893.3333333333333,-1614.25
3921.4166666666665,-1893.4166666666667,-1614.3125
3921.5,-1893.5,-1614.375
3921.5833333333335,-1893.5833333333333,-1614.4375
3921.6666666666665,-1893.6666666666667,-1614.5
3921.75,-1893.75,-1614.5625
3921.8333333333335,-1893.8333333333333,-1614.625
3921.9166666666665,-1893.9166666666667,-1614.6875
3922.0,-1894.0,-1614.75
3922.0833333333335,-1894.0833333333333,-1614.8125
3922.1666666666665,-1894.1666666666667,-1614.875
3922.25,-1894.25,-1614.9375
3922.3333333333335,-1894.3333333333333,-1615.0
3922.4166666666665,-1894.4166666666667,-1615.0625
3922.5,-1894.5,-1615.125
3922.5833333333335,-1894.5833333333333,-1615.1875
3922.6666666666665,-1894.6666666666667,-1615.25
3922.75,-1894.75,-1615.3125
3922.8333333333335,-1894.8333333333333,-1615.375
3922.9166666666665,-1894.9166666666667,-1615.4375
3923.0,-1895.0,-1615.5
3923.0833333333335,-1895.0833333333333,-1615.5625
3923.1666666666665,-1895.1666666666667,-1615.625
3923.25,-1895.25,-1615.6875
3923.3333333333335,-1895.3333333333333,-1615.75
3923.4166666666665,-1895.4166666666667,-1615.8125
3923.5,-1895.5,-1615.875
3923.5833333333335,-1895.5833333333333,-1615.9375
3923.6666666666665,-1895.6666666666667,-1616.0
3923.75,-1895.75,-1616.0625
3923.8333333333335,-1895.8333333333333,-1616.125
3923.9166666666665,-1895.9166666666667,-1616.1875
3924.0,-1896.0,-1616.25
3924.0833333333335,-1896.0833333333333,-1616.3125
3924.1666666666665,-1896.1666666666667,-1616.375
3924.25,-1896.25,-1616.4375
3924.3333333333335,-1896.3333333333333,-1616.5
3924.4166666666665,-1896.4166666666667,-1616.5625
3924.5,-1896.5,-1616.625
3924.5833333333335,-1896.5833333333333,-1616.6875
3924.6666666666665,-1896.6666666666667,-1616.75
3924.75,-1896.75,-1616.8125
3924.8333333333335,-1896.8333333333333,-1616.875
3924.9166666666665,-1896.9166666666667,-1616.9375
3925.0,-1897.0,-1617.0
