accX,accY,accZ
3937.0,-1916.0,-1637.0
3936.62,-1871.72,-1636.32
3936.24,-1827.44,-1635.64
3935.86,-1783.16,-1634.96
3935.48,-1738.88,-1634.28
3935.1,-1694.6,-1633.6
3934.72,-1650.32,-1632.92
3934.34,-1606.04,-1632.24
3933.96,-1561.76,-1631.56
3933.58,-1517.48,-1630.88
3933.2,-1473.2,-1630.2
3932.82,-1428.92,-1629.52
3932.44,-1384.6399999999999,-1628.84
3932.06,-1340.3600000000001,-1628.16
3931.68,-1296.08,-1627.48
3931.3,-1251.8,-1626.8
3930.92,-1207.52,-1626.12
3930.54,-1163.24,-1625.44
3930.16,-1118.96,-1624.76
3929.78,-1074.6799999999998,-1624.08
3929.4,-1030.4,-1623.4
3929.02,-986.12,-1622.72
3928.64,-941.8399999999999,-1622.04
3928.26,-897.56,-1621.36
3927.88,-853.28,-1620.68
3927.5,-809.0,-1620.0
3927.12,-764.72,-1619.32
3926.74,-720.44,-1618.64
3926.36,-676.1599999999999,-1617.96
3925.98,-631.8799999999999,-1617.28
3925.6,-587.5999999999999,-1616.6
3925.22,-543.3199999999999,-1615.92
3924.84,-499.03999999999996,-1615.24
3924.46,-454.76,-1614.56
3924.08,-410.48,-1613.88
3923.7,-366.20000000000005,-1613.2
3923.32,-321.9200000000001,-1612.52
3922.94,-277.6399999999999,-1611.84
3922.56,-233.3599999999999,-1611.16
3922.18,-189.07999999999993,-1610.48
3921.8,-144.79999999999995,-1609.8
3921.42,-100.51999999999998,-1609.12
3921.04,-56.24000000000001,-1608.44
3920.66,-11.960000000000036,-1607.76
3920.28,32.320000000000164,-1607.08
3919.9,76.60000000000014,-1606.4
3919.52,120.88000000000011,-1605.72
3919.14,165.15999999999985,-1605.04
3918.76,209.44000000000005,-1604.36
3918.38,253.72000000000025,-1603.68
3918.0,298.0,-1603.0
3918.326530612245,253.85714285714286,-1602.5102040816328
3918.6530612244896,209.71428571428572,-1602.0204081632653
3918.9795918367345,165.57142857142856,-1601.530612244898
3919.3061224489797,121.42857142857142,-1601.0408163265306
3919.6326530612246,77.28571428571428,-1600.5510204081634
3919.9591836734694,33.14285714285711,-1600.061224489796
3920.285714285714,-11.0,-1599.5714285714287
3920.612244897959,-55.14285714285717,-1599.0816326530612
3920.938775510204,-99.28571428571433,-1598.591836734694
3921.265306122449,-143.42857142857144,-1598.1020408163265
3921.591836734694,-187.5714285714286,-1597.6122448979593
3921.918367346939,-231.71428571428578,-1597.1224489795918
3922.2448979591836,-275.8571428571429,-1596.6326530612246
3922.5714285714284,-320.0,-1596.142857142857
3922.8979591836733,-364.1428571428572,-1595.6530612244899
3923.2244897959185,-408.28571428571433,-1595.1632653061224
3923.5510204081634,-452.42857142857144,-1594.6734693877552
3923.877551020408,-496.57142857142867,-1594.1836734693877
3924.204081632653,-540.7142857142858,-1593.6938775510205
3924.530612244898,-584.8571428571429,-1593.204081632653
3924.8571428571427,-629.0000000000001,-1592.7142857142858
3925.183673469388,-673.1428571428572,-1592.2244897959183
3925.5102040816328,-717.2857142857143,-1591.734693877551
3925.8367346938776,-761.4285714285716,-1591.2448979591836
3926.1632653061224,-805.5714285714287,-1590.7551020408164
3926.4897959183672,-849.7142857142858,-1590.265306122449
3926.816326530612,-893.8571428571429,-1589.7755102040817
3927.1428571428573,-938.0,-1589.2857142857142
3927.469387755102,-982.1428571428573,-1588.795918367347
3927.795918367347,-1026.2857142857144,-1588.3061224489795
3928.122448979592,-1070.4285714285716,-1587.8163265306123
3928.4489795918366,-1114.5714285714287,-1587.3265306122448
3928.7755102040815,-1158.7142857142858,-1586.8367346938776
3929.1020408163267,-1202.857142857143,-1586.3469387755101
3929.4285714285716,-1247.0,-1585.857142857143
3929.7551020408164,-1291.1428571428573,-1585.3673469387754
3930.081632653061,-1335.2857142857144,-1584.8775510204082
3930.408163265306,-1379.4285714285716,-1584.3877551020407
3930.734693877551,-1423.5714285714287,-1583.8979591836735
3931.061224489796,-1467.7142857142858,-1583.408163265306
3931.387755102041,-1511.857142857143,-1582.9183673469388
3931.714285714286,-1556.0000000000002,-1582.4285714285713
3932.0408163265306,-1600.1428571428573,-1581.938775510204
3932.3673469387754,-1644.2857142857144,-1581.4489795918366
3932.6938775510203,-1688.4285714285716,-1580.9591836734694
3933.0204081632655,-1732.5714285714287,-1580.469387755102
3933.3469387755104,-1776.7142857142858,-1579.9795918367347
3933.673469387755,-1820.8571428571431,-1579.4897959183672
3934.0,-1865.0,-1579.0
3933.98,-1865.34,-1579.38
3933.96,-1865.68,-1579.76
3933.94,-1866.02,-1580.14
3933.92,-1866.36,-1580.52
3933.9,-1866.7,-1580.9
3933.88,-1867.04,-1581.28
3933.86,-1867.38,-1581.66
3933.84,-1867.72,-1582.04
3933.82,-1868.06,-1582.42
3933.8,-1868.4,-1582.8
3933.78,-1868.74,-1583.18
3933.76,-1869.08,-1583.56
3933.74,-1869.42,-1583.94
3933.72,-1869.76,-1584.32
3933.7,-1870.1,-1584.7
3933.68,-1870.44,-1585.08
3933.66,-1870.78,-1585.46
3933.64,-1871.12,-1585.84
3933.62,-1871.46,-1586.22
3933.6,-1871.8,-1586.6
3933.58,-1872.14,-1586.98
3933.56,-1872.48,-1587.36
3933.54,-1872.82,-1587.74
3933.52,-1873.16,-1588.12
3933.5,-1873.5,-1588.5
3933.48,-1873.84,-1588.88
3933.46,-1874.18,-1589.26
3933.44,-1874.52,-1589.64
3933.42,-1874.86,-1590.02
3933.4,-1875.2,-1590.4
3933.38,-1875.54,-1590.78
3933.36,-1875.88,-1591.16
3933.34,-1876.22,-1591.54
3933.32,-1876.56,-1591.92
3933.3,-1876.9,-1592.3
3933.28,-1877.24,-1592.68
3933.26,-1877.58,-1593.06
3933.24,-1877.92,-1593.44
3933.22,-1878.26,-1593.82
3933.2,-1878.6,-1594.2
3933.18,-1878.94,-1594.58
3933.16,-1879.28,-1594.96
3933.14,-1879.62,-1595.34
3933.12,-1879.96,-1595.72
3933.1,-1880.3,-1596.1
3933.08,-1880.64,-1596.48
3933.06,-1880.98,-1596.86
3933.04,-1881.32,-1597.24
3933.02,-1881.66,-1597.62
3933.0,-1882.0,-1598.0
3932.529411764706,-1839.0588235294117,-1559.764705882353
3932.0588235294117,-1796.1176470588234,-1521.5294117647059
3931.5882352941176,-1753.1764705882354,-1483.2941176470588
3931.1176470588234,-1710.235294117647,-1445.0588235294117
3930.6470588235293,-1667.2941176470588,-1406.8235294117646
3930.176470588235,-1624.3529411764707,-1368.5882352941176
3929.705882352941,-1581.4117647058824,-1330.3529411764707
3929.235294117647,-1538.4705882352941,-1292.1176470588234
3928.764705882353,-1495.5294117647059,-1253.8823529411766
3928.294117647059,-1452.5882352941176,-1215.6470588235293
3927.823529411765,-1409.6470588235295,-1177.4117647058824
3927.3529411764707,-1366.7058823529412,-1139.1764705882354
3926.8823529411766,-1323.764705882353,-1100.9411764705883
3926.4117647058824,-1280.8235294117649,-1062.7058823529412
3925.9411764705883,-1237.8823529411766,-1024.4705882352941
3925.470588235294,-1194.9411764705883,-986.2352941176471
3925.0,-1152.0,-948.0
3924.529411764706,-1109.0588235294117,-909.7647058823529
3924.0588235294117,-1066.1176470588236,-871.5294117647059
3923.5882352941176,-1023.1764705882354,-833.2941176470588
3923.1176470588234,-980.2352941176471,-795.0588235294118
3922.6470588235293,-937.2941176470589,-756.8235294117648
3922.176470588235,-894.3529411764707,-718.5882352941177
3921.705882352941,-851.4117647058824,-680.3529411764706
3921.235294117647,-808.4705882352941,-642.1176470588235
3920.764705882353,-765.5294117647059,-603.8823529411765
3920.294117647059,-722.5882352941178,-565.6470588235295
3919.823529411765,-679.6470588235295,-527.4117647058824
3919.3529411764707,-636.7058823529412,-489.17647058823536
3918.8823529411766,-593.7647058823532,-450.9411764705883
3918.4117647058824,-550.8235294117649,-412.7058823529412
3917.9411764705883,-507.8823529411766,-374.47058823529414
3917.470588235294,-464.9411764705883,-336.2352941176471
3917.0,-422.0,-298.0
3916.529411764706,-379.05882352941194,-259.7647058823529
3916.0588235294117,-336.11764705882365,-221.52941176470586
3915.5882352941176,-293.17647058823536,-183.29411764705878
3915.1176470588234,-250.2352941176473,-145.0588235294117
3914.6470588235293,-207.294117647059,-106.82352941176464
3914.176470588235,-164.35294117647072,-68.58823529411757
3913.705882352941,-121.41176470588243,-30.352941176470722
3913.235294117647,-78.47058823529414,7.88235294117635
3912.764705882353,-35.52941176470608,46.11764705882342
3912.294117647059,7.411764705882206,84.3529411764705
3911.823529411765,50.352941176470495,122.58823529411757
3911.3529411764707,93.29411764705856,160.82352941176464
3910.8823529411766,136.23529411764684,199.0588235294117
3910.4117647058824,179.17647058823513,237.29411764705878
3909.9411764705883,222.11764705882342,275.52941176470586
3909.470588235294,265.0588235294117,313.7647058823529
3909.0,308.0,352.0
3907.740740740741,272.2962962962963,315.77777777777777
3906.4814814814813,236.5925925925926,279.55555555555554
3905.222222222222,200.88888888888889,243.33333333333334
3903.962962962963,165.1851851851852,207.11111111111111
3902.703703703704,129.4814814814815,170.88888888888889
3901.4444444444443,93.77777777777777,134.66666666666669
3900.185185185185,58.074074074074076,98.44444444444446
3898.925925925926,22.37037037037038,62.22222222222223
3897.6666666666665,-13.333333333333314,26.0
3896.4074074074074,-49.03703703703701,-10.222222222222229
3895.1481481481483,-84.7407407407407,-46.44444444444446
3893.8888888888887,-120.44444444444446,-82.66666666666663
3892.6296296296296,-156.14814814814815,-118.88888888888886
3891.3703703703704,-191.85185185185185,-155.1111111111111
3890.1111111111113,-227.55555555555554,-191.33333333333337
3888.8518518518517,-263.25925925925924,-227.55555555555554
3887.5925925925926,-298.96296296296293,-263.7777777777777
3886.3333333333335,-334.66666666666663,-300.0
3885.074074074074,-370.3703703703703,-336.2222222222222
3883.814814814815,-406.074074074074,-372.44444444444446
3882.5555555555557,-441.7777777777777,-408.66666666666663
3881.296296296296,-477.4814814814814,-444.8888888888889
3880.037037037037,-513.1851851851851,-481.1111111111111
3878.777777777778,-548.8888888888889,-517.3333333333333
3877.5185185185187,-584.5925925925926,-553.5555555555555
3876.259259259259,-620.2962962962963,-589.7777777777777
3875.0,-656.0,-626.0
3873.740740740741,-691.7037037037037,-662.2222222222222
3872.4814814814813,-727.4074074074074,-698.4444444444443
3871.222222222222,-763.1111111111111,-734.6666666666667
3869.962962962963,-798.8148148148148,-770.8888888888889
3868.703703703704,-834.5185185185185,-807.1111111111111
3867.4444444444443,-870.2222222222222,-843.3333333333333
3866.185185185185,-905.9259259259259,-879.5555555555554
3864.925925925926,-941.6296296296296,-915.7777777777778
3863.6666666666665,-977.3333333333333,-952.0
3862.4074074074074,-1013.037037037037,-988.2222222222222
3861.1481481481483,-1048.7407407407406,-1024.4444444444443
3859.8888888888887,-1084.4444444444443,-1060.6666666666667
3858.6296296296296,-1120.148148148148,-1096.888888888889
3857.3703703703704,-1155.8518518518517,-1133.111111111111
3856.1111111111113,-1191.5555555555554,-1169.3333333333333
3854.8518518518517,-1227.2592592592591,-1205.5555555555554
3853.5925925925926,-1262.9629629629628,-1241.7777777777778
3852.3333333333335,-1298.6666666666665,-1278.0
3851.074074074074,-1334.3703703703702,-1314.2222222222222
3849.814814814815,-1370.074074074074,-1350.4444444444443
3848.5555555555557,-1405.7777777777778,-1386.6666666666665
3847.296296296296,-1441.4814814814815,-1422.888888888889
3846.037037037037,-1477.1851851851852,-1459.111111111111
3844.777777777778,-1512.888888888889,-1495.3333333333333
3843.5185185185187,-1548.5925925925926,-1531.5555555555554
3842.259259259259,-1584.2962962962963,-1567.7777777777778
3841.0,-1620.0,-1604.0
3798.911111111111,-1582.4666666666667,-1603.9555555555555
3756.822222222222,-1544.9333333333334,-1603.911111111111
3714.733333333333,-1507.4,-1603.8666666666666
3672.6444444444446,-1469.8666666666668,-1603.8222222222223
3630.5555555555557,-1432.3333333333333,-1603.7777777777778
3588.4666666666667,-1394.8,-1603.7333333333333
3546.3777777777777,-1357.2666666666667,-1603.6888888888889
3504.288888888889,-1319.7333333333333,-1603.6444444444444
3462.2,-1282.2,-1603.6
3420.1111111111113,-1244.6666666666667,-1603.5555555555557
3378.0222222222224,-1207.1333333333332,-1603.5111111111112
3335.9333333333334,-1169.6,-1603.4666666666667
3293.8444444444444,-1132.0666666666666,-1603.4222222222222
3251.7555555555555,-1094.5333333333333,-1603.3777777777777
3209.6666666666665,-1057.0,-1603.3333333333333
3167.5777777777776,-1019.4666666666667,-1603.2888888888888
3125.488888888889,-981.9333333333334,-1603.2444444444445
3083.4,-944.4000000000001,-1603.2
3041.311111111111,-906.8666666666667,-1603.1555555555556
2999.222222222222,-869.3333333333334,-1603.111111111111
2957.133333333333,-831.8000000000001,-1603.0666666666666
2915.0444444444447,-794.2666666666667,-1603.0222222222221
2872.9555555555553,-756.7333333333333,-1602.9777777777779
2830.866666666667,-719.2,-1602.9333333333334
2788.777777777778,-681.6666666666667,-1602.888888888889
2746.688888888889,-644.1333333333334,-1602.8444444444444
2704.6,-606.6,-1602.8
2662.511111111111,-569.0666666666666,-1602.7555555555555
2620.4222222222224,-531.5333333333333,-1602.7111111111112
2578.333333333333,-494.0,-1602.6666666666667
2536.2444444444445,-456.4666666666667,-1602.6222222222223
2494.1555555555556,-418.9333333333334,-1602.5777777777778
2452.0666666666666,-381.4000000000001,-1602.5333333333333
2409.977777777778,-343.8666666666668,-1602.4888888888888
2367.8888888888887,-306.3333333333335,-1602.4444444444443
2325.8,-268.8000000000002,-1602.4
2283.711111111111,-231.26666666666665,-1602.3555555555556
2241.6222222222223,-193.73333333333335,-1602.3111111111111
2199.5333333333333,-156.20000000000005,-1602.2666666666667
2157.4444444444443,-118.66666666666674,-1602.2222222222222
2115.355555555556,-81.13333333333344,-1602.1777777777777
2073.2666666666664,-43.600000000000136,-1602.1333333333334
2031.1777777777777,-6.066666666666833,-1602.088888888889
1989.088888888889,31.466666666666697,-1602.0444444444445
1947.0,69.0,-1602.0
1985.02,30.299999999999997,-1600.82
2023.04,-8.400000000000006,-1599.64
2061.06,-47.10000000000001,-1598.46
2099.08,-85.80000000000001,-1597.28
2137.1,-124.5,-1596.1
2175.12,-163.20000000000002,-1594.92
2213.14,-201.90000000000003,-1593.74
2251.16,-240.60000000000002,-1592.56
2289.18,-279.3,-1591.38
2327.2,-318.0,-1590.2
2365.2200000000003,-356.70000000000005,-1589.02
2403.24,-395.40000000000003,-1587.84
2441.26,-434.1,-1586.66
2479.28,-472.80000000000007,-1585.48
2517.3,-511.5,-1584.3
2555.32,-550.2,-1583.12
2593.34,-588.9000000000001,-1581.94
2631.36,-627.6,-1580.76
2669.38,-666.3000000000001,-1579.58
2707.4,-705.0,-1578.4
2745.42,-743.7,-1577.22
2783.44,-782.4000000000001,-1576.04
2821.46,-821.1,-1574.86
2859.48,-859.8000000000001,-1573.68
2897.5,-898.5000000000001,-1572.5
2935.52,-937.2,-1571.32
2973.54,-975.9000000000001,-1570.14
3011.5600000000004,-1014.6000000000001,-1568.96
3049.58,-1053.3000000000002,-1567.78
3087.6000000000004,-1092.0,-1566.6
3125.62,-1130.7,-1565.42
3163.6400000000003,-1169.4,-1564.24
3201.66,-1208.1000000000001,-1563.06
3239.6800000000003,-1246.8000000000002,-1561.88
3277.7,-1285.5,-1560.7
3315.7200000000003,-1324.2,-1559.52
3353.74,-1362.9,-1558.34
3391.76,-1401.6000000000001,-1557.16
3429.78,-1440.3000000000002,-1555.98
3467.8,-1479.0,-1554.8
3505.82,-1517.7,-1553.62
3543.84,-1556.4,-1552.44
3581.86,-1595.1000000000001,-1551.26
3619.88,-1633.8000000000002,-1550.08
3657.9,-1672.5000000000002,-1548.9
3695.92,-1711.2,-1547.72
3733.94,-1749.9,-1546.54
3771.96,-1788.6000000000001,-1545.36
3809.9800000000005,-1827.3000000000002,-1544.18
3848.0,-1866.0,-1543.0
3774.1346153846152,-1791.9423076923076,-1543.5192307692307
3700.269230769231,-1717.8846153846155,-1544.0384615384614
3626.403846153846,-1643.826923076923,-1544.5576923076924
3552.5384615384614,-1569.7692307692307,-1545.076923076923
3478.673076923077,-1495.7115384615386,-1545.5961538461538
3404.8076923076924,-1421.6538461538462,-1546.1153846153845
3330.9423076923076,-1347.5961538461538,-1546.6346153846155
3257.076923076923,-1273.5384615384614,-1547.1538461538462
3183.2115384615386,-1199.4807692307693,-1547.673076923077
3109.346153846154,-1125.423076923077,-1548.1923076923076
3035.4807692307695,-1051.3653846153848,-1548.7115384615386
2961.6153846153848,-977.3076923076924,-1549.2307692307693
2887.75,-903.25,-1549.75
2813.8846153846152,-829.1923076923076,-1550.2692307692307
2740.0192307692305,-755.1346153846155,-1550.7884615384614
2666.153846153846,-681.0769230769231,-1551.3076923076924
2592.288461538462,-607.0192307692307,-1551.826923076923
2518.423076923077,-532.9615384615386,-1552.3461538461538
2444.5576923076924,-458.9038461538462,-1552.8653846153845
2370.6923076923076,-384.8461538461538,-1553.3846153846155
2296.826923076923,-310.78846153846166,-1553.9038461538462
2222.9615384615386,-236.73076923076928,-1554.423076923077
2149.096153846154,-162.6730769230769,-1554.9423076923076
2075.2307692307695,-88.61538461538476,-1555.4615384615386
2001.3653846153848,-14.557692307692378,-1555.9807692307693
1927.5,59.5,-1556.5
1853.6346153846155,133.55769230769238,-1557.0192307692307
1779.769230769231,207.61538461538476,-1557.5384615384614
1705.9038461538462,281.6730769230767,-1558.0576923076924
1632.0384615384614,355.73076923076906,-1558.576923076923
1558.1730769230771,429.78846153846143,-1559.0961538461538
1484.3076923076924,503.8461538461538,-1559.6153846153845
1410.4423076923076,577.9038461538462,-1560.1346153846155
1336.5769230769233,651.9615384615386,-1560.6538461538462
1262.7115384615386,726.019230769231,-1561.173076923077
1188.8461538461538,800.0769230769229,-1561.6923076923076
1114.9807692307695,874.1346153846152,-1562.2115384615386
1041.1153846153848,948.1923076923076,-1562.7307692307693
967.25,1022.25,-1563.25
893.3846153846152,1096.3076923076924,-1563.7692307692307
819.519230769231,1170.3653846153848,-1564.2884615384614
745.6538461538462,1244.4230769230767,-1564.8076923076924
671.7884615384614,1318.480769230769,-1565.326923076923
597.9230769230771,1392.5384615384614,-1565.8461538461538
524.0576923076924,1466.5961538461538,-1566.3653846153845
450.1923076923076,1540.6538461538462,-1566.8846153846155
376.3269230769233,1614.7115384615386,-1567.4038461538462
302.46153846153857,1688.7692307692305,-1567.923076923077
228.5961538461538,1762.8269230769229,-1568.4423076923076
154.7307692307695,1836.8846153846152,-1568.9615384615386
80.86538461538476,1910.9423076923076,-1569.4807692307693
7.0,1985.0,-1570.0
85.55102040816327,1907.8163265306123,-1569.8367346938776
164.10204081632654,1830.6326530612246,-1569.6734693877552
242.65306122448982,1753.4489795918366,-1569.5102040816328
321.2040816326531,1676.265306122449,-1569.3469387755101
399.7551020408163,1599.0816326530612,-1569.1836734693877
478.30612244897964,1521.8979591836735,-1569.0204081632653
556.8571428571429,1444.7142857142858,-1568.857142857143
635.4081632653061,1367.5306122448978,-1568.6938775510205
713.9591836734694,1290.3469387755104,-1568.530612244898
792.5102040816327,1213.1632653061224,-1568.3673469387754
871.0612244897959,1135.9795918367347,-1568.204081632653
949.6122448979593,1058.795918367347,-1568.0408163265306
1028.1632653061224,981.6122448979592,-1567.8775510204082
1106.7142857142858,904.4285714285713,-1567.7142857142858
1185.265306122449,827.2448979591836,-1567.5510204081634
1263.8163265306123,750.0612244897959,-1567.3877551020407
1342.3673469387757,672.8775510204082,-1567.2244897959183
1420.9183673469388,595.6938775510205,-1567.061224489796
1499.4693877551022,518.5102040816325,-1566.8979591836735
1578.0204081632653,441.3265306122448,-1566.734693877551
1656.5714285714287,364.1428571428571,-1566.5714285714287
1735.1224489795918,286.9591836734694,-1566.408163265306
1813.6734693877552,209.77551020408168,-1566.2448979591836
1892.2244897959185,132.59183673469397,-1566.0816326530612
1970.7755102040817,55.40816326530603,-1565.9183673469388
2049.326530612245,-21.775510204081684,-1565.7551020408164
2127.877551020408,-98.9591836734694,-1565.591836734694
2206.4285714285716,-176.14285714285734,-1565.4285714285713
2284.979591836735,-253.32653061224482,-1565.265306122449
2363.530612244898,-330.51020408163276,-1565.1020408163265
2442.081632653061,-407.69387755102025,-1564.938775510204
2520.6326530612246,-484.8775510204082,-1564.7755102040817
2599.183673469388,-562.0612244897961,-1564.6122448979593
2677.7346938775513,-639.2448979591836,-1564.4489795918366
2756.285714285714,-716.4285714285716,-1564.2857142857142
2834.8367346938776,-793.612244897959,-1564.1224489795918
2913.387755102041,-870.795918367347,-1563.9591836734694
2991.9387755102043,-947.9795918367349,-1563.795918367347
3070.4897959183672,-1025.1632653061224,-1563.6326530612246
3149.0408163265306,-1102.3469387755104,-1563.469387755102
3227.591836734694,-1179.5306122448978,-1563.3061224489795
3306.1428571428573,-1256.7142857142858,-1563.142857142857
3384.6938775510207,-1333.8979591836737,-1562.9795918367347
3463.2448979591836,-1411.0816326530612,-1562.8163265306123
3541.795918367347,-1488.2653061224491,-1562.6530612244899
3620.3469387755104,-1565.4489795918366,-1562.4897959183672
3698.8979591836737,-1642.6326530612246,-1562.3265306122448
3777.448979591837,-1719.816326530612,-1562.1632653061224
3856.0,-1797.0,-1562.0
3821.45,-1762.0166666666667,-1530.1
3786.9,-1727.0333333333333,-1498.2
3752.35,-1692.05,-1466.3
3717.8,-1657.0666666666666,-1434.4
3683.25,-1622.0833333333333,-1402.5
3648.7,-1587.1,-1370.6
3614.15,-1552.1166666666668,-1338.7
3579.6,-1517.1333333333332,-1306.8
3545.05,-1482.15,-1274.9
3510.5,-1447.1666666666665,-1243.0
3475.95,-1412.1833333333334,-1211.1
3441.4,-1377.2,-1179.2
3406.85,-1342.2166666666667,-1147.3
3372.3,-1307.2333333333333,-1115.4
3337.75,-1272.25,-1083.5
3303.2,-1237.2666666666667,-1051.6
3268.65,-1202.2833333333333,-1019.7
3234.1,-1167.3,-987.8000000000001
3199.55,-1132.3166666666666,-955.9
3165.0,-1097.3333333333333,-924.0
3130.45,-1062.35,-892.1
3095.9,-1027.3666666666668,-860.2
3061.35,-992.3833333333333,-828.3000000000001
3026.8,-957.4,-796.4000000000001
2992.25,-922.4166666666666,-764.5
2957.7,-887.4333333333333,-732.6
2923.15,-852.4499999999999,-700.7
2888.6000000000004,-817.4666666666667,-668.8000000000001
2854.05,-782.4833333333333,-636.9000000000001
2819.5,-747.5,-605.0
2784.95,-712.5166666666667,-573.1
2750.4,-677.5333333333333,-541.2
2715.8500000000004,-642.55,-509.29999999999995
2681.3,-607.5666666666666,-477.4000000000001
2646.75,-572.5833333333333,-445.5
2612.2,-537.5999999999999,-413.60000000000014
2577.65,-502.61666666666656,-381.70000000000005
2543.1000000000004,-467.6333333333332,-349.79999999999995
2508.55,-432.64999999999986,-317.9000000000001
2474.0,-397.6666666666665,-286.0
2439.45,-362.6833333333334,-254.10000000000014
2404.9,-327.70000000000005,-222.20000000000005
2370.3500000000004,-292.7166666666667,-190.29999999999995
2335.8,-257.73333333333335,-158.4000000000001
2301.25,-222.75,-126.5
2266.7,-187.76666666666665,-94.60000000000014
2232.15,-152.7833333333333,-62.700000000000045
2197.6000000000004,-117.79999999999995,-30.800000000000182
2163.05,-82.8166666666666,1.099999999999909
2128.5,-47.83333333333326,33.0
2093.95,-12.849999999999909,64.89999999999986
2059.4,22.13333333333344,96.79999999999995
2024.8500000000001,57.11666666666679,128.69999999999982
1990.3000000000002,92.10000000000014,160.5999999999999
1955.7500000000002,127.08333333333348,192.5
1921.2000000000003,162.0666666666666,224.39999999999986
1886.65,197.04999999999995,256.29999999999995
1852.1000000000001,232.0333333333333,288.1999999999998
1817.5500000000002,267.0166666666669,320.0999999999999
1783.0,302.0,352.0
1787.1190476190477,297.2857142857143,305.2142857142857
1791.2380952380952,292.57142857142856,258.42857142857144
1795.357142857143,287.85714285714283,211.64285714285714
1799.4761904761904,283.14285714285717,164.85714285714286
1803.595238095238,278.42857142857144,118.07142857142858
1807.7142857142858,273.7142857142857,71.28571428571428
1811.8333333333333,269.0,24.5
1815.952380952381,264.2857142857143,-22.285714285714278
1820.0714285714287,259.57142857142856,-69.07142857142856
1824.1904761904761,254.85714285714286,-115.85714285714283
1828.3095238095239,250.14285714285714,-162.6428571428571
1832.4285714285713,245.42857142857144,-209.42857142857144
1836.547619047619,240.71428571428572,-256.21428571428567
1840.6666666666667,236.0,-303.0
1844.7857142857142,231.28571428571428,-349.7857142857142
1848.904761904762,226.57142857142856,-396.57142857142856
1853.0238095238096,221.85714285714286,-443.3571428571429
1857.142857142857,217.14285714285714,-490.1428571428571
1861.2619047619048,212.42857142857144,-536.9285714285714
1865.3809523809523,207.71428571428572,-583.7142857142857
1869.5,203.0,-630.5
1873.6190476190477,198.28571428571428,-677.2857142857142
1877.7380952380952,193.57142857142856,-724.0714285714284
1881.857142857143,188.85714285714286,-770.8571428571429
1885.9761904761904,184.14285714285714,-817.6428571428571
1890.095238095238,179.42857142857144,-864.4285714285713
1894.2142857142858,174.71428571428572,-911.2142857142858
1898.3333333333333,170.0,-958.0
1902.452380952381,165.28571428571428,-1004.7857142857142
1906.5714285714284,160.57142857142856,-1051.5714285714284
1910.6904761904761,155.85714285714286,-1098.357142857143
1914.8095238095239,151.14285714285714,-1145.142857142857
1918.9285714285713,146.42857142857142,-1191.9285714285713
1923.047619047619,141.71428571428572,-1238.7142857142858
1927.1666666666667,137.0,-1285.5
1931.2857142857142,132.28571428571428,-1332.2857142857142
1935.404761904762,127.57142857142856,-1379.0714285714284
1939.5238095238096,122.85714285714286,-1425.857142857143
1943.642857142857,118.14285714285714,-1472.642857142857
1947.7619047619048,113.42857142857142,-1519.4285714285713
1951.8809523809523,108.71428571428572,-1566.2142857142858
1956.0,104.0,-1613.0
1952.0416666666667,109.125,-1612.25
1948.0833333333333,114.25,-1611.5
1944.125,119.375,-1610.75
1940.1666666666667,124.5,-1610.0
1936.2083333333333,129.625,-1609.25
1932.25,134.75,-1608.5
1928.2916666666667,139.875,-1607.75
1924.3333333333333,145.0,-1607.0
1920.375,150.125,-1606.25
1916.4166666666667,155.25,-1605.5
1912.4583333333333,160.375,-1604.75
1908.5,165.5,-1604.0
1904.5416666666667,170.625,-1603.25
1900.5833333333333,175.75,-1602.5
1896.625,180.875,-1601.75
1892.6666666666667,186.0,-1601.0
1888.7083333333333,191.125,-1600.25
1884.75,196.25,-1599.5
1880.7916666666667,201.375,-1598.75
1876.8333333333333,206.5,-1598.0
1872.875,211.625,-1597.25
1868.9166666666667,216.75,-1596.5
1864.9583333333333,221.875,-1595.75
1861.0,227.0,-1595.0
1857.0416666666667,232.125,-1594.25
1853.0833333333333,237.25,-1593.5
1849.125,242.375,-1592.75
1845.1666666666667,247.5,-1592.0
1841.2083333333333,252.625,-1591.25
1837.25,257.75,-1590.5
1833.2916666666667,262.875,-1589.75
1829.3333333333333,268.0,-1589.0
1825.375,273.125,-1588.25
1821.4166666666667,278.25,-1587.5
1817.4583333333333,283.375,-1586.75
1813.5,288.5,-1586.0
1809.5416666666667,293.625,-1585.25
1805.5833333333333,298.75,-1584.5
1801.625,303.875,-1583.75
1797.6666666666667,309.0,-1583.0
1793.7083333333333,314.125,-1582.25
1789.75,319.25,-1581.5
1785.7916666666667,324.375,-1580.75
1781.8333333333333,329.5,-1580.0
1777.875,334.625,-1579.25
1773.9166666666667,339.75,-1578.5
1769.9583333333333,344.875,-1577.75
1766.0,350.0,-1577.0
1769.7777777777778,380.31481481481484,-1578.2407407407406
1773.5555555555557,410.6296296296296,-1579.4814814814815
1777.3333333333333,440.94444444444446,-1580.7222222222222
1781.111111111111,471.25925925925924,-1581.962962962963
1784.888888888889,501.5740740740741,-1583.2037037037037
1788.6666666666667,531.8888888888889,-1584.4444444444443
1792.4444444444443,562.2037037037037,-1585.6851851851852
1796.2222222222222,592.5185185185185,-1586.9259259259259
1800.0,622.8333333333333,-1588.1666666666667
1803.7777777777778,653.1481481481482,-1589.4074074074074
1807.5555555555557,683.4629629629629,-1590.648148148148
1811.3333333333333,713.7777777777778,-1591.888888888889
1815.111111111111,744.0925925925926,-1593.1296296296296
1818.888888888889,774.4074074074074,-1594.3703703703704
1822.6666666666667,804.7222222222222,-1595.611111111111
1826.4444444444443,835.037037037037,-1596.851851851852
1830.2222222222222,865.3518518518518,-1598.0925925925926
1834.0,895.6666666666666,-1599.3333333333333
1837.7777777777778,925.9814814814814,-1600.5740740740741
1841.5555555555557,956.2962962962963,-1601.8148148148148
1845.3333333333333,986.6111111111111,-1603.0555555555557
1849.111111111111,1016.9259259259259,-1604.2962962962963
1852.888888888889,1047.2407407407406,-1605.537037037037
1856.6666666666667,1077.5555555555557,-1606.7777777777778
1860.4444444444443,1107.8703703703704,-1608.0185185185185
1864.2222222222222,1138.1851851851852,-1609.2592592592594
1868.0,1168.5,-1610.5
1871.7777777777778,1198.8148148148148,-1611.7407407407406
1875.5555555555557,1229.1296296296296,-1612.9814814814815
1879.3333333333333,1259.4444444444443,-1614.2222222222222
1883.111111111111,1289.7592592592591,-1615.462962962963
1886.888888888889,1320.074074074074,-1616.7037037037037
1890.6666666666667,1350.3888888888887,-1617.9444444444443
1894.4444444444443,1380.7037037037037,-1619.1851851851852
1898.2222222222222,1411.0185185185185,-1620.4259259259259
1902.0,1441.3333333333333,-1621.6666666666667
1905.7777777777778,1471.648148148148,-1622.9074074074074
1909.5555555555557,1501.9629629629628,-1624.148148148148
1913.3333333333333,1532.2777777777776,-1625.388888888889
1917.111111111111,1562.5925925925926,-1626.6296296296296
1920.888888888889,1592.9074074074074,-1627.8703703703704
1924.6666666666667,1623.2222222222222,-1629.111111111111
1928.4444444444443,1653.537037037037,-1630.3518518518517
1932.2222222222222,1683.8518518518517,-1631.5925925925926
1936.0,1714.1666666666665,-1632.8333333333333
1939.7777777777778,1744.4814814814813,-1634.0740740740741
1943.5555555555557,1774.7962962962963,-1635.3148148148148
1947.3333333333333,1805.111111111111,-1636.5555555555557
1951.111111111111,1835.4259259259259,-1637.7962962962963
1954.888888888889,1865.7407407407406,-1639.037037037037
1958.6666666666667,1896.0555555555554,-1640.2777777777778
1962.4444444444443,1926.3703703703702,-1641.5185185185185
1966.2222222222222,1956.685185185185,-1642.7592592592594
1970.0,1987.0,-1644.0
2010.9166666666667,1907.5,-1602.1666666666667
2051.8333333333335,1828.0,-1560.3333333333333
2092.75,1748.5,-1518.5
2133.6666666666665,1669.0,-1476.6666666666667
2174.5833333333335,1589.5,-1434.8333333333333
2215.5,1510.0,-1393.0
2256.4166666666665,1430.5,-1351.1666666666665
2297.3333333333335,1351.0,-1309.3333333333333
2338.25,1271.5,-1267.5
2379.1666666666665,1192.0,-1225.6666666666665
2420.0833333333335,1112.5,-1183.8333333333333
2461.0,1033.0,-1142.0
2501.9166666666665,953.5,-1100.1666666666665
2542.833333333333,874.0,-1058.3333333333333
2583.75,794.5,-1016.5
2624.6666666666665,715.0,-974.6666666666666
2665.583333333333,635.5,-932.8333333333333
2706.5,556.0,-891.0
2747.4166666666665,476.5,-849.1666666666666
2788.333333333333,397.0,-807.3333333333333
2829.25,317.5,-765.5
2870.1666666666665,238.0,-723.6666666666666
2911.083333333333,158.5,-681.8333333333333
2952.0,79.0,-640.0
2992.9166666666665,-0.5,-598.1666666666665
3033.833333333333,-80.0,-556.3333333333333
3074.75,-159.5,-514.5
3115.6666666666665,-239.0,-472.6666666666665
3156.583333333333,-318.5,-430.83333333333326
3197.5,-398.0,-389.0
3238.4166666666665,-477.5,-347.1666666666665
3279.333333333333,-557.0,-305.33333333333326
3320.25,-636.5,-263.5
3361.1666666666665,-716.0,-221.66666666666652
3402.083333333333,-795.5,-179.83333333333326
3443.0,-875.0,-138.0
3483.9166666666665,-954.5,-96.16666666666652
3524.833333333333,-1034.0,-54.33333333333326
3565.75,-1113.5,-12.5
3606.6666666666665,-1193.0,29.333333333333485
3647.583333333333,-1272.5,71.16666666666674
3688.5,-1352.0,113.0
3729.4166666666665,-1431.5,154.83333333333348
3770.333333333333,-1511.0,196.66666666666674
3811.25,-1590.5,238.5
3852.1666666666665,-1670.0,280.3333333333335
3893.083333333333,-1749.5,322.16666666666674
3934.0,-1829.0,364.0
3933.2291666666665,-1828.7083333333333,363.4791666666667
3932.4583333333335,-1828.4166666666667,362.9583333333333
3931.6875,-1828.125,362.4375
3930.9166666666665,-1827.8333333333333,361.9166666666667
3930.1458333333335,-1827.5416666666667,361.3958333333333
3929.375,-1827.25,360.875
3928.6041666666665,-1826.9583333333333,360.3541666666667
3927.8333333333335,-1826.6666666666667,359.8333333333333
3927.0625,-1826.375,359.3125
3926.2916666666665,-1826.0833333333333,358.7916666666667
3925.5208333333335,-1825.7916666666667,358.2708333333333
3924.75,-1825.5,357.75
3923.9791666666665,-1825.2083333333333,357.2291666666667
3923.2083333333335,-1824.9166666666667,356.7083333333333
3922.4375,-1824.625,356.1875
3921.6666666666665,-1824.3333333333333,355.6666666666667
3920.8958333333335,-1824.0416666666667,355.1458333333333
3920.125,-1823.75,354.625
3919.3541666666665,-1823.4583333333333,354.1041666666667
3918.5833333333335,-1823.1666666666667,353.5833333333333
3917.8125,-1822.875,353.0625
3917.0416666666665,-1822.5833333333333,352.5416666666667
3916.2708333333335,-1822.2916666666667,352.0208333333333
3915.5,-1822.0,351.5
3914.7291666666665,-1821.7083333333333,350.9791666666667
3913.9583333333335,-1821.4166666666667,350.4583333333333
3913.1875,-1821.125,349.9375
3912.4166666666665,-1820.8333333333333,349.4166666666667
3911.6458333333335,-1820.5416666666667,348.8958333333333
3910.875,-1820.25,348.375
3910.1041666666665,-1819.9583333333333,347.8541666666667
3909.3333333333335,-1819.6666666666667,347.3333333333333
3908.5625,-1819.375,346.8125
3907.7916666666665,-1819.0833333333333,346.2916666666667
3907.0208333333335,-1818.7916666666667,345.7708333333333
3906.25,-1818.5,345.25
3905.4791666666665,-1818.2083333333333,344.7291666666667
3904.7083333333335,-1817.9166666666667,344.2083333333333
3903.9375,-1817.625,343.6875
3903.1666666666665,-1817.3333333333333,343.1666666666667
3902.3958333333335,-1817.0416666666667,342.6458333333333
3901.625,-1816.75,342.125
3900.8541666666665,-1816.4583333333333,341.6041666666667
3900.0833333333335,-1816.1666666666667,341.0833333333333
3899.3125,-1815.875,340.5625
3898.5416666666665,-1815.5833333333333,340.0416666666667
3897.7708333333335,-1815.2916666666667,339.5208333333333
3897.0,-1815.0,339.0
3860.9444444444443,-1815.148148148148,338.81481481481484
3824.8888888888887,-1815.2962962962963,338.6296296296296
3788.8333333333335,-1815.4444444444443,338.44444444444446
3752.777777777778,-1815.5925925925926,338.25925925925924
3716.722222222222,-1815.7407407407406,338.0740740740741
3680.6666666666665,-1815.888888888889,337.8888888888889
3644.6111111111113,-1816.037037037037,337.7037037037037
3608.5555555555557,-1816.1851851851852,337.51851851851853
3572.5,-1816.3333333333333,337.3333333333333
3536.4444444444443,-1816.4814814814815,337.14814814814815
3500.3888888888887,-1816.6296296296296,336.962962962963
3464.3333333333335,-1816.7777777777778,336.77777777777777
3428.277777777778,-1816.9259259259259,336.5925925925926
3392.222222222222,-1817.0740740740741,336.4074074074074
3356.1666666666665,-1817.2222222222222,336.22222222222223
3320.1111111111113,-1817.3703703703704,336.037037037037
3284.0555555555557,-1817.5185185185185,335.85185185185185
3248.0,-1817.6666666666667,335.6666666666667
3211.9444444444443,-1817.8148148148148,335.48148148148147
3175.8888888888887,-1817.962962962963,335.2962962962963
3139.833333333333,-1818.111111111111,335.1111111111111
3103.777777777778,-1818.2592592592594,334.9259259259259
3067.722222222222,-1818.4074074074074,334.74074074074076
3031.6666666666665,-1818.5555555555557,334.55555555555554
2995.6111111111113,-1818.7037037037037,334.3703703703704
2959.5555555555557,-1818.851851851852,334.18518518518516
2923.5,-1819.0,334.0
2887.4444444444443,-1819.148148148148,333.81481481481484
2851.3888888888887,-1819.2962962962963,333.6296296296296
2815.333333333333,-1819.4444444444443,333.44444444444446
2779.277777777778,-1819.5925925925926,333.25925925925924
2743.222222222222,-1819.7407407407406,333.0740740740741
2707.1666666666665,-1819.888888888889,332.8888888888889
2671.1111111111113,-1820.037037037037,332.7037037037037
2635.0555555555557,-1820.1851851851852,332.51851851851853
2599.0,-1820.3333333333333,332.3333333333333
2562.9444444444443,-1820.4814814814815,332.14814814814815
2526.8888888888887,-1820.6296296296296,331.962962962963
2490.833333333333,-1820.7777777777778,331.77777777777777
2454.777777777778,-1820.9259259259259,331.5925925925926
2418.722222222222,-1821.0740740740741,331.4074074074074
2382.6666666666665,-1821.2222222222222,331.22222222222223
2346.6111111111113,-1821.3703703703704,331.037037037037
2310.5555555555557,-1821.5185185185185,330.85185185185185
2274.5,-1821.6666666666667,330.6666666666667
2238.4444444444443,-1821.8148148148148,330.48148148148147
2202.3888888888887,-1821.962962962963,330.2962962962963
2166.333333333333,-1822.111111111111,330.1111111111111
2130.2777777777774,-1822.2592592592594,329.9259259259259
2094.222222222222,-1822.4074074074074,329.74074074074076
2058.1666666666665,-1822.5555555555557,329.55555555555554
2022.111111111111,-1822.7037037037037,329.3703703703704
1986.0555555555554,-1822.851851851852,329.18518518518516
1950.0,-1823.0,329.0
1949.9791666666667,-1822.4791666666667,288.0416666666667
1949.9583333333333,-1821.9583333333333,247.08333333333331
1949.9375,-1821.4375,206.125
1949.9166666666667,-1820.9166666666667,165.16666666666666
1949.8958333333333,-1820.3958333333333,124.20833333333331
1949.875,-1819.875,83.25
1949.8541666666667,-1819.3541666666667,42.29166666666663
1949.8333333333333,-1818.8333333333333,1.3333333333333144
1949.8125,-1818.3125,-39.625
1949.7916666666667,-1817.7916666666667,-80.58333333333337
1949.7708333333333,-1817.2708333333333,-121.54166666666669
1949.75,-1816.75,-162.5
1949.7291666666667,-1816.2291666666667,-203.45833333333337
1949.7083333333333,-1815.7083333333333,-244.41666666666674
1949.6875,-1815.1875,-285.375
1949.6666666666667,-1814.6666666666667,-326.33333333333337
1949.6458333333333,-1814.1458333333333,-367.29166666666674
1949.625,-1813.625,-408.25
1949.6041666666667,-1813.1041666666667,-449.20833333333337
1949.5833333333333,-1812.5833333333333,-490.16666666666674
1949.5625,-1812.0625,-531.125
1949.5416666666667,-1811.5416666666667,-572.0833333333334
1949.5208333333333,-1811.0208333333333,-613.0416666666667
1949.5,-1810.5,-654.0
1949.4791666666667,-1809.9791666666667,-694.9583333333334
1949.4583333333333,-1809.4583333333333,-735.9166666666667
1949.4375,-1808.9375,-776.875
1949.4166666666667,-1808.4166666666667,-817.8333333333335
1949.3958333333333,-1807.8958333333333,-858.7916666666667
1949.375,-1807.375,-899.75
1949.3541666666667,-1806.8541666666667,-940.7083333333335
1949.3333333333333,-1806.3333333333333,-981.6666666666667
1949.3125,-1805.8125,-1022.625
1949.2916666666667,-1805.2916666666667,-1063.5833333333335
1949.2708333333333,-1804.7708333333333,-1104.5416666666667
1949.25,-1804.25,-1145.5
1949.2291666666667,-1803.7291666666667,-1186.4583333333335
1949.2083333333333,-1803.2083333333333,-1227.4166666666667
1949.1875,-1802.6875,-1268.375
1949.1666666666667,-1802.1666666666667,-1309.3333333333335
1949.1458333333333,-1801.6458333333333,-1350.2916666666667
1949.125,-1801.125,-1391.25
1949.1041666666667,-1800.6041666666667,-1432.2083333333335
1949.0833333333333,-1800.0833333333333,-1473.1666666666667
1949.0625,-1799.5625,-1514.125
1949.0416666666667,-1799.0416666666667,-1555.0833333333335
1949.0208333333333,-1798.5208333333333,-1596.0416666666667
1949.0,-1798.0,-1637.0
1945.375,-1754.8958333333333,-1637.1666666666667
1941.75,-1711.7916666666667,-1637.3333333333333
1938.125,-1668.6875,-1637.5
1934.5,-1625.5833333333333,-1637.6666666666667
1930.875,-1582.4791666666667,-1637.8333333333333
1927.25,-1539.375,-1638.0
1923.625,-1496.2708333333335,-1638.1666666666667
1920.0,-1453.1666666666667,-1638.3333333333333
1916.375,-1410.0625,-1638.5
1912.75,-1366.9583333333335,-1638.6666666666667
1909.125,-1323.8541666666667,-1638.8333333333333
1905.5,-1280.75,-1639.0
1901.875,-1237.6458333333335,-1639.1666666666667
1898.25,-1194.5416666666667,-1639.3333333333333
1894.625,-1151.4375,-1639.5
1891.0,-1108.3333333333335,-1639.6666666666667
1887.375,-1065.2291666666667,-1639.8333333333333
1883.75,-1022.125,-1640.0
1880.125,-979.0208333333334,-1640.1666666666667
1876.5,-935.9166666666667,-1640.3333333333333
1872.875,-892.8125,-1640.5
1869.25,-849.7083333333334,-1640.6666666666667
1865.625,-806.6041666666667,-1640.8333333333333
1862.0,-763.5,-1641.0
1858.375,-720.3958333333335,-1641.1666666666667
1854.75,-677.2916666666667,-1641.3333333333333
1851.125,-634.1875,-1641.5
1847.5,-591.0833333333335,-1641.6666666666667
1843.875,-547.9791666666667,-1641.8333333333333
1840.25,-504.875,-1642.0
1836.625,-461.7708333333335,-1642.1666666666667
1833.0,-418.66666666666674,-1642.3333333333333
1829.375,-375.5625,-1642.5
1825.75,-332.4583333333335,-1642.6666666666667
1822.125,-289.35416666666674,-1642.8333333333333
1818.5,-246.25,-1643.0
1814.875,-203.14583333333348,-1643.1666666666667
1811.25,-160.04166666666674,-1643.3333333333333
1807.625,-116.9375,-1643.5
1804.0,-73.83333333333348,-1643.6666666666667
1800.375,-30.729166666666742,-1643.8333333333333
1796.75,12.375,-1644.0
1793.125,55.479166666666515,-1644.1666666666667
1789.5,98.58333333333326,-1644.3333333333333
1785.875,141.6875,-1644.5
1782.25,184.79166666666652,-1644.6666666666667
1778.625,227.89583333333326,-1644.8333333333333
1775.0,271.0,-1645.0
1810.6166666666666,236.36666666666667,-1612.5
1846.2333333333333,201.73333333333335,-1580.0
1881.85,167.1,-1547.5
1917.4666666666667,132.46666666666667,-1515.0
1953.0833333333333,97.83333333333334,-1482.5
1988.7,63.19999999999999,-1450.0
2024.3166666666666,28.566666666666663,-1417.5
2059.9333333333334,-6.066666666666663,-1385.0
2095.55,-40.69999999999999,-1352.5
2131.1666666666665,-75.33333333333331,-1320.0
2166.7833333333333,-109.96666666666664,-1287.5
2202.4,-144.60000000000002,-1255.0
2238.0166666666664,-179.23333333333335,-1222.5
2273.633333333333,-213.86666666666667,-1190.0
2309.25,-248.5,-1157.5
2344.866666666667,-283.1333333333333,-1125.0
2380.4833333333336,-317.76666666666665,-1092.5
2416.1,-352.4,-1060.0
2451.7166666666667,-387.0333333333333,-1027.5
2487.3333333333335,-421.66666666666663,-995.0
2522.95,-456.29999999999995,-962.5
2558.5666666666666,-490.9333333333333,-930.0
2594.1833333333334,-525.5666666666666,-897.5
2629.8,-560.2,-865.0
2665.4166666666665,-594.8333333333334,-832.5
2701.0333333333333,-629.4666666666667,-800.0
2736.65,-664.1,-767.5
2772.2666666666664,-698.7333333333333,-735.0
2807.883333333333,-733.3666666666667,-702.5
2843.5,-768.0,-670.0
2879.116666666667,-802.6333333333332,-637.5
2914.7333333333336,-837.2666666666667,-605.0
2950.35,-871.9000000000001,-572.5
2985.9666666666667,-906.5333333333333,-540.0
3021.583333333333,-941.1666666666667,-507.5
3057.2,-975.8,-475.0
3092.8166666666666,-1010.4333333333334,-442.5
3128.4333333333334,-1045.0666666666666,-410.0
3164.05,-1079.7,-377.5
3199.666666666667,-1114.3333333333333,-345.0
3235.2833333333333,-1148.9666666666667,-312.5
3270.9,-1183.6,-280.0
3306.5166666666664,-1218.2333333333333,-247.5
3342.133333333333,-1252.8666666666666,-215.0
3377.75,-1287.5,-182.5
3413.366666666667,-1322.1333333333332,-150.0
3448.9833333333336,-1356.7666666666667,-117.5
3484.6,-1391.4,-85.0
3520.2166666666667,-1426.0333333333333,-52.5
3555.833333333333,-1460.6666666666667,-20.0
3591.45,-1495.3,12.5
3627.0666666666666,-1529.9333333333334,45.0
3662.6833333333334,-1564.5666666666666,77.5
3698.3,-1599.2,110.0
3733.916666666667,-1633.8333333333333,142.5
3769.5333333333333,-1668.4666666666667,175.0
3805.15,-1703.1,207.5
3840.766666666667,-1737.7333333333333,240.0
3876.383333333333,-1772.3666666666666,272.5
3912.0,-1807.0,305.0
3911.595238095238,-1756.452380952381,259.76190476190476
3911.190476190476,-1705.904761904762,214.52380952380952
3910.785714285714,-1655.357142857143,169.28571428571428
3910.3809523809523,-1604.8095238095239,124.04761904761904
3909.9761904761904,-1554.2619047619048,78.8095238095238
3909.5714285714284,-1503.7142857142858,33.571428571428555
3909.1666666666665,-1453.1666666666665,-11.666666666666686
3908.7619047619046,-1402.6190476190477,-56.904761904761926
3908.3571428571427,-1352.0714285714284,-102.14285714285717
3907.9523809523807,-1301.5238095238096,-147.3809523809524
3907.5476190476193,-1250.9761904761904,-192.61904761904765
3907.1428571428573,-1200.4285714285713,-237.8571428571429
3906.7380952380954,-1149.8809523809523,-283.0952380952381
3906.3333333333335,-1099.3333333333333,-328.33333333333337
3905.9285714285716,-1048.7857142857142,-373.57142857142867
3905.5238095238096,-998.2380952380952,-418.80952380952385
3905.1190476190477,-947.6904761904761,-464.04761904761904
3904.714285714286,-897.1428571428571,-509.28571428571433
3904.309523809524,-846.5952380952381,-554.5238095238096
3903.904761904762,-796.047619047619,-599.7619047619048
3903.5,-745.5,-645.0
3903.095238095238,-694.952380952381,-690.2380952380953
3902.690476190476,-644.4047619047619,-735.4761904761906
3902.285714285714,-593.8571428571427,-780.7142857142858
3901.8809523809523,-543.3095238095236,-825.952380952381
3901.4761904761904,-492.7619047619046,-871.1904761904761
3901.0714285714284,-442.21428571428555,-916.4285714285716
3900.6666666666665,-391.6666666666665,-961.6666666666667
3900.2619047619046,-341.1190476190475,-1006.9047619047619
3899.8571428571427,-290.57142857142844,-1052.1428571428573
3899.4523809523807,-240.0238095238094,-1097.3809523809525
3899.0476190476193,-189.47619047619037,-1142.6190476190477
3898.6428571428573,-138.92857142857133,-1187.857142857143
3898.2380952380954,-88.3809523809523,-1233.095238095238
3897.8333333333335,-37.83333333333326,-1278.3333333333335
3897.4285714285716,12.71428571428578,-1323.5714285714287
3897.0238095238096,63.261904761904816,-1368.8095238095239
3896.6190476190477,113.80952380952385,-1414.0476190476193
3896.214285714286,164.3571428571429,-1459.2857142857144
3895.809523809524,214.90476190476193,-1504.5238095238096
3895.404761904762,265.4523809523812,-1549.7619047619048
3895.0,316.0,-1595.0
