accX,accY,accZ
1676.0,-1885.0,366.0
1715.7843137254902,-1884.1764705882354,365.3333333333333
1755.5686274509803,-1883.3529411764705,364.6666666666667
1795.3529411764705,-1882.5294117647059,364.0
1835.1372549019607,-1881.7058823529412,363.3333333333333
1874.921568627451,-1880.8823529411766,362.6666666666667
1914.7058823529412,-1880.0588235294117,362.0
1954.4901960784314,-1879.235294117647,361.3333333333333
1994.2745098039215,-1878.4117647058824,360.6666666666667
2034.0588235294117,-1877.5882352941176,360.0
2073.843137254902,-1876.764705882353,359.3333333333333
2113.627450980392,-1875.9411764705883,358.6666666666667
2153.4117647058824,-1875.1176470588234,358.0
2193.1960784313724,-1874.2941176470588,357.3333333333333
2232.9803921568628,-1873.4705882352941,356.6666666666667
2272.764705882353,-1872.6470588235295,356.0
2312.549019607843,-1871.8235294117646,355.3333333333333
2352.333333333333,-1871.0,354.6666666666667
2392.1176470588234,-1870.1764705882354,354.0
2431.901960784314,-1869.3529411764705,353.3333333333333
2471.6862745098038,-1868.5294117647059,352.6666666666667
2511.470588235294,-1867.7058823529412,352.0
2551.254901960784,-1866.8823529411766,351.3333333333333
2591.0392156862745,-1866.0588235294117,350.6666666666667
2630.823529411765,-1865.235294117647,350.0
2670.607843137255,-1864.4117647058824,349.3333333333333
2710.3921568627447,-1863.5882352941176,348.6666666666667
2750.176470588235,-1862.764705882353,348.0
2789.9607843137255,-1861.9411764705883,347.3333333333333
2829.745098039216,-1861.1176470588234,346.6666666666667
2869.529411764706,-1860.2941176470588,346.0
2909.313725490196,-1859.4705882352941,345.3333333333333
2949.098039215686,-1858.6470588235295,344.6666666666667
2988.8823529411766,-1857.8235294117646,344.0
3028.6666666666665,-1857.0,343.3333333333333
3068.4509803921565,-1856.1764705882354,342.6666666666667
3108.235294117647,-1855.3529411764705,342.0
3148.0196078431372,-1854.5294117647059,341.3333333333333
3187.8039215686276,-1853.7058823529412,340.6666666666667
3227.5882352941176,-1852.8823529411766,340.0
3267.3725490196075,-1852.0588235294117,339.3333333333333
3307.156862745098,-1851.235294117647,338.6666666666667
3346.9411764705883,-1850.4117647058824,338.0
3386.725490196078,-1849.5882352941176,337.3333333333333
3426.5098039215686,-1848.764705882353,336.6666666666667
3466.2941176470586,-1847.9411764705883,336.0
3506.078431372549,-1847.1176470588234,335.3333333333333
3545.8627450980393,-1846.2941176470588,334.6666666666667
3585.6470588235293,-1845.4705882352941,334.0
3625.431372549019,-1844.6470588235295,333.3333333333333
3665.2156862745096,-1843.8235294117646,332.6666666666667
3705.0,-1843.0,332.0
3665.725490196078,-1842.9803921568628,332.4901960784314
3626.450980392157,-1842.9607843137255,332.98039215686276
3587.176470588235,-1842.9411764705883,333.47058823529414
3547.901960784314,-1842.921568627451,333.96078431372547
3508.627450980392,-1842.9019607843138,334.45098039215685
3469.3529411764707,-1842.8823529411766,334.94117647058823
3430.078431372549,-1842.862745098039,335.4313725490196
3390.8039215686276,-1842.8431372549019,335.921568627451
3351.529411764706,-1842.8235294117646,336.4117647058824
3312.254901960784,-1842.8039215686274,336.9019607843137
3272.9803921568628,-1842.7843137254902,337.3921568627451
3233.7058823529414,-1842.764705882353,337.88235294117646
3194.4313725490197,-1842.7450980392157,338.37254901960785
3155.156862745098,-1842.7254901960785,338.8627450980392
3115.8823529411766,-1842.7058823529412,339.3529411764706
3076.607843137255,-1842.686274509804,339.84313725490193
3037.3333333333335,-1842.6666666666667,340.3333333333333
2998.0588235294117,-1842.6470588235295,340.8235294117647
2958.7843137254904,-1842.6274509803923,341.3137254901961
2919.5098039215686,-1842.6078431372548,341.80392156862746
2880.235294117647,-1842.5882352941176,342.29411764705884
2840.9607843137255,-1842.5686274509803,342.7843137254902
2801.686274509804,-1842.549019607843,343.27450980392155
2762.4117647058824,-1842.5294117647059,343.7647058823529
2723.1372549019607,-1842.5098039215686,344.2549019607843
2683.8627450980393,-1842.4901960784314,344.7450980392157
2644.5882352941176,-1842.4705882352941,345.2352941176471
2605.313725490196,-1842.450980392157,345.72549019607845
2566.0392156862745,-1842.4313725490197,346.2156862745098
2526.764705882353,-1842.4117647058824,346.70588235294116
2487.4901960784314,-1842.3921568627452,347.19607843137254
2448.2156862745096,-1842.3725490196077,347.6862745098039
2408.9411764705883,-1842.3529411764705,348.1764705882353
2369.666666666667,-1842.3333333333333,348.6666666666667
2330.392156862745,-1842.313725490196,349.156862745098
2291.1176470588234,-1842.2941176470588,349.6470588235294
2251.843137254902,-1842.2745098039215,350.1372549019608
2212.5686274509803,-1842.2549019607843,350.62745098039215
2173.2941176470586,-1842.235294117647,351.11764705882354
2134.0196078431372,-1842.2156862745098,351.6078431372549
2094.745098039216,-1842.1960784313726,352.0980392156863
2055.470588235294,-1842.1764705882354,352.5882352941176
2016.1960784313726,-1842.1568627450981,353.078431372549
1976.921568627451,-1842.137254901961,353.5686274509804
1937.6470588235295,-1842.1176470588234,354.05882352941177
1898.372549019608,-1842.0980392156862,354.54901960784315
1859.0980392156864,-1842.078431372549,355.03921568627453
1819.8235294117649,-1842.0588235294117,355.52941176470586
1780.549019607843,-1842.0392156862745,356.01960784313724
1741.2745098039215,-1842.0196078431372,356.5098039215686
1702.0,-1842.0,357.0
1744.4893617021276,-1842.1063829787233,355.3404255319149
1786.9787234042553,-1842.212765957447,353.6808510638298
1829.468085106383,-1842.3191489361702,352.02127659574467
1871.9574468085107,-1842.4255319148936,350.36170212765956
1914.4468085106382,-1842.531914893617,348.70212765957444
1956.936170212766,-1842.6382978723404,347.04255319148933
1999.4255319148936,-1842.7446808510638,345.3829787234043
2041.9148936170213,-1842.8510638297873,343.72340425531917
2084.404255319149,-1842.9574468085107,342.06382978723406
2126.8936170212764,-1843.063829787234,340.40425531914894
2169.3829787234044,-1843.1702127659576,338.74468085106383
2211.872340425532,-1843.276595744681,337.0851063829787
2254.3617021276596,-1843.3829787234042,335.4255319148936
2296.851063829787,-1843.4893617021276,333.7659574468085
2339.3404255319147,-1843.595744680851,332.1063829787234
2381.8297872340427,-1843.7021276595744,330.4468085106383
2424.31914893617,-1843.8085106382978,328.78723404255317
2466.808510638298,-1843.9148936170213,327.1276595744681
2509.297872340426,-1844.0212765957447,325.468085106383
2551.7872340425533,-1844.127659574468,323.8085106382979
2594.276595744681,-1844.2340425531916,322.1489361702128
2636.7659574468084,-1844.340425531915,320.48936170212767
2679.255319148936,-1844.4468085106382,318.82978723404256
2721.744680851064,-1844.5531914893618,317.17021276595744
2764.2340425531916,-1844.659574468085,315.51063829787233
2806.723404255319,-1844.7659574468084,313.8510638297872
2849.212765957447,-1844.872340425532,312.1914893617021
2891.702127659574,-1844.9787234042553,310.531914893617
2934.191489361702,-1845.0851063829787,308.8723404255319
2976.68085106383,-1845.1914893617022,307.21276595744683
3019.1702127659573,-1845.2978723404256,305.5531914893617
3061.6595744680853,-1845.404255319149,303.8936170212766
3104.1489361702124,-1845.5106382978724,302.2340425531915
3146.6382978723404,-1845.6170212765958,300.5744680851064
3189.127659574468,-1845.723404255319,298.9148936170213
3231.6170212765956,-1845.8297872340424,297.25531914893617
3274.1063829787236,-1845.936170212766,295.59574468085106
3316.595744680851,-1846.0425531914893,293.93617021276594
3359.0851063829787,-1846.1489361702127,292.27659574468083
3401.5744680851067,-1846.2553191489362,290.6170212765958
3444.0638297872338,-1846.3617021276596,288.95744680851067
3486.553191489362,-1846.468085106383,287.29787234042556
3529.0425531914893,-1846.5744680851064,285.63829787234044
3571.531914893617,-1846.6808510638298,283.97872340425533
3614.021276595745,-1846.787234042553,282.3191489361702
3656.5106382978724,-1846.8936170212767,280.6595744680851
3699.0,-1847.0,279.0
3698.52,-1846.66,279.12
3698.04,-1846.32,279.24
3697.56,-1845.98,279.36
3697.08,-1845.64,279.48
3696.6,-1845.3,279.6
3696.12,-1844.96,279.72
3695.64,-1844.62,279.84
3695.16,-1844.28,279.96
3694.68,-1843.94,280.08
3694.2,-1843.6,280.2
3693.72,-1843.26,280.32
3693.24,-1842.92,280.44
3692.76,-1842.58,280.56
3692.28,-1842.24,280.68
3691.8,-1841.9,280.8
3691.32,-1841.56,280.92
3690.84,-1841.22,281.04
3690.36,-1840.88,281.16
3689.88,-1840.54,281.28
3689.4,-1840.2,281.4
3688.92,-1839.86,281.52
3688.44,-1839.52,281.64
3687.96,-1839.18,281.76
3687.48,-1838.84,281.88
3687.0,-1838.5,282.0
3686.52,-1838.16,282.12
3686.04,-1837.82,282.24
3685.56,-1837.48,282.36
3685.08,-1837.14,282.48
3684.6,-1836.8,282.6
3684.12,-1836.46,282.72
3683.64,-1836.12,282.84
3683.16,-1835.78,282.96
3682.68,-1835.44,283.08
3682.2,-1835.1,283.2
3681.72,-1834.76,283.32
3681.24,-1834.42,283.44
3680.76,-1834.08,283.56
3680.28,-1833.74,283.68
3679.8,-1833.4,283.8
3679.32,-1833.06,283.92
3678.84,-1832.72,284.04
3678.36,-1832.38,284.16
3677.88,-1832.04,284.28
3677.4,-1831.7,284.4
3676.92,-1831.36,284.52
3676.44,-1831.02,284.64
3675.96,-1830.68,284.76
3675.48,-1830.34,284.88
3675.0,-1830.0,285.0
3635.9803921568628,-1831.4705882352941,286.05882352941177
3596.9607843137255,-1832.9411764705883,287.11764705882354
3557.9411764705883,-1834.4117647058824,288.1764705882353
3518.921568627451,-1835.8823529411766,289.2352941176471
3479.901960784314,-1837.3529411764705,290.29411764705884
3440.8823529411766,-1838.8235294117646,291.3529411764706
3401.8627450980393,-1840.2941176470588,292.4117647058824
3362.843137254902,-1841.764705882353,293.47058823529414
3323.823529411765,-1843.235294117647,294.52941176470586
3284.8039215686276,-1844.7058823529412,295.5882352941176
3245.7843137254904,-1846.1764705882354,296.6470588235294
3206.764705882353,-1847.6470588235295,297.70588235294116
3167.7450980392155,-1849.1176470588234,298.7647058823529
3128.725490196078,-1850.5882352941176,299.8235294117647
3089.705882352941,-1852.0588235294117,300.88235294117646
3050.6862745098038,-1853.5294117647059,301.94117647058823
3011.6666666666665,-1855.0,303.0
2972.6470588235293,-1856.4705882352941,304.05882352941177
2933.627450980392,-1857.9411764705883,305.11764705882354
2894.607843137255,-1859.4117647058824,306.1764705882353
2855.5882352941176,-1860.8823529411766,307.2352941176471
2816.5686274509803,-1862.3529411764705,308.29411764705884
2777.549019607843,-1863.8235294117646,309.3529411764706
2738.529411764706,-1865.2941176470588,310.4117647058824
2699.5098039215686,-1866.764705882353,311.47058823529414
2660.4901960784314,-1868.235294117647,312.52941176470586
2621.4705882352937,-1869.7058823529412,313.5882352941176
2582.4509803921565,-1871.1764705882354,314.6470588235294
2543.431372549019,-1872.6470588235295,315.70588235294116
2504.411764705882,-1874.1176470588234,316.7647058823529
2465.3921568627447,-1875.5882352941176,317.8235294117647
2426.3725490196075,-1877.0588235294117,318.88235294117646
2387.3529411764703,-1878.5294117647059,319.94117647058823
2348.333333333333,-1880.0,321.0
2309.313725490196,-1881.4705882352941,322.05882352941177
2270.2941176470586,-1882.9411764705883,323.11764705882354
2231.2745098039213,-1884.4117647058824,324.1764705882353
2192.254901960784,-1885.8823529411766,325.2352941176471
2153.235294117647,-1887.3529411764705,326.29411764705884
2114.2156862745096,-1888.8235294117646,327.3529411764706
2075.1960784313724,-1890.2941176470588,328.4117647058824
2036.1764705882351,-1891.764705882353,329.47058823529414
1997.156862745098,-1893.235294117647,330.52941176470586
1958.1372549019607,-1894.7058823529412,331.5882352941176
1919.1176470588234,-1896.1764705882354,332.6470588235294
1880.0980392156862,-1897.6470588235295,333.70588235294116
1841.078431372549,-1899.1176470588234,334.7647058823529
1802.0588235294117,-1900.5882352941176,335.8235294117647
1763.0392156862742,-1902.0588235294117,336.88235294117646
1724.019607843137,-1903.5294117647059,337.94117647058823
1685.0,-1905.0,339.0
1686.08,-1904.8,338.74
1687.16,-1904.6,338.48
1688.24,-1904.4,338.22
1689.32,-1904.2,337.96
1690.4,-1904.0,337.7
1691.48,-1903.8,337.44
1692.56,-1903.6,337.18
1693.64,-1903.4,336.92
1694.72,-1903.2,336.66
1695.8,-1903.0,336.4
1696.88,-1902.8,336.14
1697.96,-1902.6,335.88
1699.04,-1902.4,335.62
1700.12,-1902.2,335.36
1701.2,-1902.0,335.1
1702.28,-1901.8,334.84
1703.36,-1901.6,334.58
1704.44,-1901.4,334.32
1705.52,-1901.2,334.06
1706.6,-1901.0,333.8
1707.68,-1900.8,333.54
1708.76,-1900.6,333.28
1709.84,-1900.4,333.02
1710.92,-1900.2,332.76
1712.0,-1900.0,332.5
1713.08,-1899.8,332.24
1714.16,-1899.6,331.98
1715.24,-1899.4,331.72
1716.32,-1899.2,331.46
1717.4,-1899.0,331.2
1718.48,-1898.8,330.94
1719.56,-1898.6,330.68
1720.64,-1898.4,330.42
1721.72,-1898.2,330.16
1722.8,-1898.0,329.9
1723.88,-1897.8,329.64
1724.96,-1897.6,329.38
1726.04,-1897.4,329.12
1727.12,-1897.2,328.86
1728.2,-1897.0,328.6
1729.28,-1896.8,328.34
1730.36,-1896.6,328.08
1731.44,-1896.4,327.82
1732.52,-1896.2,327.56
1733.6,-1896.0,327.3
1734.68,-1895.8,327.04
1735.76,-1895.6,326.78
1736.84,-1895.4,326.52
1737.92,-1895.2,326.26
1739.0,-1895.0,326.0
1781.5,-1894.98,325.06
1824.0,-1894.96,324.12
1866.5,-1894.94,323.18
1909.0,-1894.92,322.24
1951.5,-1894.9,321.3
1994.0,-1894.88,320.36
2036.5,-1894.86,319.42
2079.0,-1894.84,318.48
2121.5,-1894.82,317.54
2164.0,-1894.8,316.6
2206.5,-1894.78,315.66
2249.0,-1894.76,314.72
2291.5,-1894.74,313.78
2334.0,-1894.72,312.84
2376.5,-1894.7,311.9
2419.0,-1894.68,310.96
2461.5,-1894.66,310.02
2504.0,-1894.64,309.08
2546.5,-1894.62,308.14
2589.0,-1894.6,307.2
2631.5,-1894.58,306.26
2674.0,-1894.56,305.32
2716.5,-1894.54,304.38
2759.0,-1894.52,303.44
2801.5,-1894.5,302.5
2844.0,-1894.48,301.56
2886.5,-1894.46,300.62
2929.0,-1894.44,299.68
2971.5,-1894.42,298.74
3014.0,-1894.4,297.8
3056.5,-1894.38,296.86
3099.0,-1894.36,295.92
3141.5,-1894.34,294.98
3184.0,-1894.32,294.04
3226.5,-1894.3,293.1
3269.0,-1894.28,292.16
3311.5,-1894.26,291.22
3354.0,-1894.24,290.28
3396.5,-1894.22,289.34000000000003
3439.0,-1894.2,288.4
3481.5,-1894.18,287.46
3524.0,-1894.16,286.52
3566.5,-1894.14,285.58
3609.0,-1894.12,284.64
3651.5,-1894.1,283.7
3694.0,-1894.08,282.76
3736.5,-1894.06,281.82
3779.0,-1894.04,280.88
3821.5,-1894.02,279.94
3864.0,-1894.0,279.0
3820.02,-1894.04,279.04
3776.04,-1894.08,279.08
3732.06,-1894.12,279.12
3688.08,-1894.16,279.16
3644.1,-1894.2,279.2
3600.12,-1894.24,279.24
3556.14,-1894.28,279.28
3512.16,-1894.32,279.32
3468.18,-1894.36,279.36
3424.2,-1894.4,279.4
3380.2200000000003,-1894.44,279.44
3336.24,-1894.48,279.48
3292.26,-1894.52,279.52
3248.28,-1894.56,279.56
3204.3,-1894.6,279.6
3160.32,-1894.64,279.64
3116.34,-1894.68,279.68
3072.36,-1894.72,279.72
3028.38,-1894.76,279.76
2984.4,-1894.8,279.8
2940.42,-1894.84,279.84
2896.44,-1894.88,279.88
2852.46,-1894.92,279.92
2808.48,-1894.96,279.96
2764.5,-1895.0,280.0
2720.52,-1895.04,280.04
2676.54,-1895.08,280.08
2632.5600000000004,-1895.12,280.12
2588.58,-1895.16,280.16
2544.6000000000004,-1895.2,280.2
2500.62,-1895.24,280.24
2456.6400000000003,-1895.28,280.28
2412.66,-1895.32,280.32
2368.6800000000003,-1895.36,280.36
2324.7,-1895.4,280.4
2280.7200000000003,-1895.44,280.44
2236.74,-1895.48,280.48
2192.76,-1895.52,280.52
2148.78,-1895.56,280.56
2104.8,-1895.6,280.6
2060.82,-1895.64,280.64
2016.8400000000001,-1895.68,280.68
1972.8600000000001,-1895.72,280.72
1928.88,-1895.76,280.76
1884.9,-1895.8,280.8
1840.92,-1895.84,280.84
1796.94,-1895.88,280.88
1752.96,-1895.92,280.92
1708.98,-1895.96,280.96
1665.0,-1896.0,281.0
1704.54,-1852.82,282.52
1744.08,-1809.64,284.04
1783.62,-1766.46,285.56
1823.16,-1723.28,287.08
1862.7,-1680.1,288.6
1902.24,-1636.92,290.12
1941.78,-1593.74,291.64
1981.32,-1550.56,293.16
2020.8600000000001,-1507.38,294.68
2060.4,-1464.2,296.2
2099.94,-1421.02,297.72
2139.48,-1377.8400000000001,299.24
2179.02,-1334.6599999999999,300.76
2218.56,-1291.48,302.28
2258.1,-1248.3,303.8
2297.64,-1205.12,305.32
2337.18,-1161.94,306.84
2376.7200000000003,-1118.76,308.36
2416.26,-1075.58,309.88
2455.8,-1032.4,311.4
2495.34,-989.22,312.92
2534.88,-946.04,314.44
2574.42,-902.86,315.96
2613.96,-859.6800000000001,317.48
2653.5,-816.5,319.0
2693.04,-773.3199999999999,320.52
2732.58,-730.1400000000001,322.04
2772.12,-686.96,323.56
2811.66,-643.78,325.08
2851.2,-600.5999999999999,326.6
2890.74,-557.4200000000001,328.12
2930.2799999999997,-514.24,329.64
2969.8199999999997,-471.05999999999995,331.16
3009.3599999999997,-427.8800000000001,332.68
3048.8999999999996,-384.70000000000005,334.2
3088.44,-341.52,335.72
3127.98,-298.3399999999999,337.24
3167.52,-255.16000000000008,338.76
3207.06,-211.98000000000002,340.28
3246.6,-168.79999999999995,341.8
3286.14,-125.62000000000012,343.32
3325.6800000000003,-82.44000000000005,344.84000000000003
3365.2200000000003,-39.25999999999999,346.36
3404.76,3.9200000000000728,347.88
3444.3,47.09999999999991,349.4
3483.84,90.27999999999997,350.92
3523.38,133.46000000000004,352.44
3562.92,176.63999999999987,353.96000000000004
3602.46,219.82000000000016,355.48
3642.0,263.0,357.0
3604.75,222.1730769230769,318.21153846153845
3567.5,181.34615384615384,279.4230769230769
3530.25,140.51923076923077,240.6346153846154
3493.0,99.69230769230768,201.84615384615384
3455.75,58.865384615384585,163.0576923076923
3418.5,18.03846153846152,124.26923076923077
3381.25,-22.788461538461547,85.48076923076923
3344.0,-63.61538461538464,46.69230769230768
3306.75,-104.44230769230774,7.903846153846132
3269.5,-145.26923076923083,-30.884615384615415
3232.25,-186.09615384615387,-69.67307692307696
3195.0,-226.92307692307696,-108.46153846153845
3157.75,-267.75,-147.25
3120.5,-308.5769230769231,-186.03846153846155
3083.25,-349.4038461538462,-224.8269230769231
3046.0,-390.2307692307693,-263.61538461538464
3008.75,-431.0576923076924,-302.4038461538462
2971.5,-471.8846153846155,-341.19230769230774
2934.25,-512.7115384615386,-379.9807692307693
2897.0,-553.5384615384617,-418.76923076923083
2859.75,-594.3653846153846,-457.5576923076924
2822.5,-635.1923076923077,-496.3461538461539
2785.25,-676.0192307692308,-535.1346153846155
2748.0,-716.8461538461539,-573.9230769230769
2710.75,-757.673076923077,-612.7115384615385
2673.5,-798.5,-651.5
2636.25,-839.3269230769231,-690.2884615384617
2599.0,-880.1538461538462,-729.0769230769231
2561.75,-920.9807692307693,-767.8653846153848
2524.5,-961.8076923076924,-806.6538461538462
2487.25,-1002.6346153846155,-845.4423076923078
2450.0,-1043.4615384615386,-884.2307692307693
2412.75,-1084.2884615384617,-923.0192307692307
2375.5,-1125.1153846153848,-961.8076923076924
2338.25,-1165.9423076923078,-1000.5961538461538
2301.0,-1206.769230769231,-1039.3846153846155
2263.75,-1247.596153846154,-1078.173076923077
2226.5,-1288.4230769230771,-1116.9615384615386
2189.25,-1329.2500000000002,-1155.75
2152.0,-1370.0769230769233,-1194.5384615384617
2114.75,-1410.9038461538462,-1233.326923076923
2077.5,-1451.7307692307693,-1272.1153846153848
2040.25,-1492.5576923076924,-1310.9038461538462
2003.0,-1533.3846153846155,-1349.6923076923078
1965.75,-1574.2115384615386,-1388.4807692307693
1928.5,-1615.0384615384617,-1427.269230769231
1891.25,-1655.8653846153848,-1466.0576923076924
1854.0,-1696.6923076923078,-1504.8461538461538
1816.75,-1737.519230769231,-1543.6346153846155
1779.5,-1778.346153846154,-1582.423076923077
1742.25,-1819.1730769230771,-1621.2115384615386
1705.0,-1860.0,-1660.0
1704.2708333333333,-1860.8541666666667,-1619.75
1703.5416666666667,-1861.7083333333333,-1579.5
1702.8125,-1862.5625,-1539.25
1702.0833333333333,-1863.4166666666667,-1499.0
1701.3541666666667,-1864.2708333333333,-1458.75
1700.625,-1865.125,-1418.5
1699.8958333333333,-1865.9791666666667,-1378.25
1699.1666666666667,-1866.8333333333333,-1338.0
1698.4375,-1867.6875,-1297.75
1697.7083333333333,-1868.5416666666667,-1257.5
1696.9791666666667,-1869.3958333333333,-1217.25
1696.25,-1870.25,-1177.0
1695.5208333333333,-1871.1041666666667,-1136.75
1694.7916666666667,-1871.9583333333333,-1096.5
1694.0625,-1872.8125,-1056.25
1693.3333333333333,-1873.6666666666667,-1016.0
1692.6041666666667,-1874.5208333333333,-975.75
1691.875,-1875.375,-935.5
1691.1458333333333,-1876.2291666666667,-895.25
1690.4166666666667,-1877.0833333333333,-855.0
1689.6875,-1877.9375,-814.75
1688.9583333333333,-1878.7916666666667,-774.5
1688.2291666666667,-1879.6458333333333,-734.25
1687.5,-1880.5,-694.0
1686.7708333333333,-1881.3541666666667,-653.75
1686.0416666666667,-1882.2083333333333,-613.5
1685.3125,-1883.0625,-573.25
1684.5833333333333,-1883.9166666666667,-533.0
1683.8541666666667,-1884.7708333333333,-492.75
1683.125,-1885.625,-452.5
1682.3958333333333,-1886.4791666666667,-412.25
1681.6666666666667,-1887.3333333333333,-372.0
1680.9375,-1888.1875,-331.75
1680.2083333333333,-1889.0416666666667,-291.5
1679.4791666666667,-1889.8958333333333,-251.25
1678.75,-1890.75,-211.0
1678.0208333333333,-1891.6041666666667,-170.75
1677.2916666666667,-1892.4583333333333,-130.5
1676.5625,-1893.3125,-90.25
1675.8333333333333,-1894.1666666666667,-50.0
1675.1041666666667,-1895.0208333333333,-9.75
1674.375,-1895.875,30.5
1673.6458333333333,-1896.7291666666667,70.75
1672.9166666666667,-1897.5833333333333,111.0
1672.1875,-1898.4375,151.25
1671.4583333333333,-1899.2916666666667,191.5
1670.7291666666667,-1900.1458333333333,231.75
1670.0,-1901.0,272.0
1703.2833333333333,-1899.9666666666667,272.21666666666664
1736.5666666666666,-1898.9333333333334,272.43333333333334
1769.85,-1897.9,272.65
1803.1333333333332,-1896.8666666666666,272.8666666666667
1836.4166666666667,-1895.8333333333333,273.0833333333333
1869.7,-1894.8,273.3
1902.9833333333333,-1893.7666666666667,273.51666666666665
1936.2666666666667,-1892.7333333333333,273.73333333333335
1969.55,-1891.7,273.95
2002.8333333333333,-1890.6666666666667,274.1666666666667
2036.1166666666668,-1889.6333333333334,274.3833333333333
2069.4,-1888.6,274.6
2102.6833333333334,-1887.5666666666666,274.81666666666666
2135.9666666666667,-1886.5333333333333,275.03333333333336
2169.25,-1885.5,275.25
2202.5333333333333,-1884.4666666666667,275.46666666666664
2235.8166666666666,-1883.4333333333334,275.68333333333334
2269.1,-1882.4,275.9
2302.383333333333,-1881.3666666666666,276.1166666666667
2335.6666666666665,-1880.3333333333333,276.3333333333333
2368.95,-1879.3,276.55
2402.2333333333336,-1878.2666666666667,276.76666666666665
2435.5166666666664,-1877.2333333333333,276.98333333333335
2468.8,-1876.2,277.2
2502.083333333333,-1875.1666666666667,277.4166666666667
2535.366666666667,-1874.1333333333334,277.6333333333333
2568.65,-1873.1,277.85
2601.9333333333334,-1872.0666666666666,278.06666666666666
2635.2166666666667,-1871.0333333333333,278.28333333333336
2668.5,-1870.0,278.5
2701.7833333333333,-1868.9666666666667,278.71666666666664
2735.0666666666666,-1867.9333333333334,278.93333333333334
2768.35,-1866.9,279.15
2801.633333333333,-1865.8666666666666,279.3666666666667
2834.9166666666665,-1864.8333333333333,279.5833333333333
2868.2,-1863.8,279.8
2901.4833333333336,-1862.7666666666667,280.01666666666665
2934.7666666666664,-1861.7333333333333,280.23333333333335
2968.05,-1860.7,280.45
3001.333333333333,-1859.6666666666667,280.6666666666667
3034.616666666667,-1858.6333333333332,280.8833333333333
3067.8999999999996,-1857.6,281.1
3101.1833333333334,-1856.5666666666666,281.31666666666666
3134.4666666666667,-1855.5333333333333,281.53333333333336
3167.75,-1854.5,281.75
3201.0333333333333,-1853.4666666666667,281.96666666666664
3234.3166666666666,-1852.4333333333334,282.18333333333334
3267.6,-1851.4,282.4
3300.883333333333,-1850.3666666666666,282.6166666666667
3334.1666666666665,-1849.3333333333333,282.8333333333333
3367.45,-1848.3,283.05
3400.733333333333,-1847.2666666666667,283.26666666666665
3434.0166666666664,-1846.2333333333333,283.48333333333335
3467.3,-1845.2,283.7
3500.583333333333,-1844.1666666666667,283.9166666666667
3533.866666666667,-1843.1333333333332,284.1333333333333
3567.1499999999996,-1842.1,284.35
3600.4333333333334,-1841.0666666666666,284.56666666666666
3633.7166666666662,-1840.0333333333333,284.78333333333336
3667.0,-1839.0,285.0
3620.0714285714284,-1793.547619047619,286.2142857142857
3573.1428571428573,-1748.095238095238,287.42857142857144
3526.214285714286,-1702.642857142857,288.64285714285717
3479.285714285714,-1657.1904761904761,289.85714285714283
3432.3571428571427,-1611.7380952380952,291.07142857142856
3385.4285714285716,-1566.2857142857142,292.2857142857143
3338.5,-1520.8333333333335,293.5
3291.5714285714284,-1475.3809523809523,294.7142857142857
3244.642857142857,-1429.9285714285716,295.92857142857144
3197.714285714286,-1384.4761904761904,297.14285714285717
3150.785714285714,-1339.0238095238096,298.35714285714283
3103.857142857143,-1293.5714285714287,299.57142857142856
3056.9285714285716,-1248.1190476190477,300.7857142857143
3010.0,-1202.6666666666667,302.0
2963.0714285714284,-1157.2142857142858,303.2142857142857
2916.142857142857,-1111.7619047619048,304.42857142857144
2869.214285714286,-1066.3095238095239,305.64285714285717
2822.285714285714,-1020.8571428571429,306.85714285714283
2775.3571428571427,-975.4047619047619,308.07142857142856
2728.4285714285716,-929.952380952381,309.2857142857143
2681.5,-884.5000000000001,310.5
2634.5714285714284,-839.0476190476192,311.7142857142857
2587.642857142857,-793.5952380952381,312.92857142857144
2540.714285714286,-748.1428571428573,314.1428571428571
2493.785714285714,-702.6904761904764,315.35714285714283
2446.857142857143,-657.2380952380954,316.57142857142856
2399.9285714285716,-611.7857142857144,317.7857142857143
2353.0,-566.3333333333335,319.0
2306.0714285714284,-520.8809523809525,320.2142857142857
2259.142857142857,-475.42857142857156,321.42857142857144
2212.2142857142853,-429.9761904761906,322.6428571428571
2165.285714285714,-384.52380952380963,323.85714285714283
2118.357142857143,-339.07142857142867,325.07142857142856
2071.4285714285716,-293.6190476190477,326.2857142857143
2024.5,-248.16666666666674,327.5
1977.5714285714284,-202.71428571428578,328.7142857142857
1930.642857142857,-157.26190476190482,329.92857142857144
1883.7142857142856,-111.80952380952385,331.1428571428571
1836.7857142857142,-66.35714285714289,332.35714285714283
1789.8571428571427,-20.904761904761926,333.57142857142856
1742.9285714285713,24.54761904761881,334.7857142857143
1696.0,70.0,336.0
1736.8541666666667,31.083333333333336,335.5833333333333
1777.7083333333333,-7.833333333333329,335.1666666666667
1818.5625,-46.75,334.75
1859.4166666666667,-85.66666666666666,334.3333333333333
1900.2708333333333,-124.58333333333331,333.9166666666667
1941.125,-163.5,333.5
1981.9791666666665,-202.41666666666663,333.0833333333333
2022.8333333333333,-241.33333333333331,332.6666666666667
2063.6875,-280.25,332.25
2104.5416666666665,-319.16666666666663,331.8333333333333
2145.3958333333335,-358.0833333333333,331.4166666666667
2186.25,-397.0,331.0
2227.1041666666665,-435.91666666666663,330.5833333333333
2267.958333333333,-474.83333333333326,330.1666666666667
2308.8125,-513.75,329.75
2349.6666666666665,-552.6666666666666,329.3333333333333
2390.520833333333,-591.5833333333333,328.9166666666667
2431.375,-630.5,328.5
2472.2291666666665,-669.4166666666666,328.0833333333333
2513.083333333333,-708.3333333333333,327.6666666666667
2553.9375,-747.25,327.25
2594.7916666666665,-786.1666666666666,326.8333333333333
2635.645833333333,-825.0833333333333,326.4166666666667
2676.5,-864.0,326.0
2717.3541666666665,-902.9166666666666,325.5833333333333
2758.208333333333,-941.8333333333333,325.1666666666667
2799.0625,-980.75,324.75
2839.9166666666665,-1019.6666666666665,324.3333333333333
2880.770833333333,-1058.5833333333333,323.9166666666667
2921.625,-1097.5,323.5
2962.4791666666665,-1136.4166666666665,323.0833333333333
3003.333333333333,-1175.3333333333333,322.6666666666667
3044.1875,-1214.25,322.25
3085.0416666666665,-1253.1666666666665,321.8333333333333
3125.895833333333,-1292.0833333333333,321.4166666666667
3166.75,-1331.0,321.0
3207.6041666666665,-1369.9166666666665,320.5833333333333
3248.458333333333,-1408.8333333333333,320.1666666666667
3289.3125,-1447.75,319.75
3330.1666666666665,-1486.6666666666665,319.3333333333333
3371.020833333333,-1525.5833333333333,318.9166666666667
3411.875,-1564.5,318.5
3452.7291666666665,-1603.4166666666665,318.0833333333333
3493.583333333333,-1642.3333333333333,317.6666666666667
3534.4375,-1681.25,317.25
3575.2916666666665,-1720.1666666666665,316.8333333333333
3616.145833333333,-1759.0833333333333,316.4166666666667
3657.0,-1798.0,316.0
3657.25,-1799.2,316.5833333333333
3657.5,-1800.4,317.1666666666667
3657.75,-1801.6,317.75
3658.0,-1802.8,318.3333333333333
3658.25,-1804.0,318.9166666666667
3658.5,-1805.2,319.5
3658.75,-1806.4,320.0833333333333
3659.0,-1807.6,320.6666666666667
3659.25,-1808.8,321.25
3659.5,-1810.0,321.8333333333333
3659.75,-1811.2,322.4166666666667
3660.0,-1812.4,323.0
3660.25,-1813.6,323.5833333333333
3660.5,-1814.8,324.1666666666667
3660.75,-1816.0,324.75
3661.0,-1817.2,325.3333333333333
3661.25,-1818.4,325.9166666666667
3661.5,-1819.6,326.5
3661.75,-1820.8,327.0833333333333
3662.0,-1822.0,327.6666666666667
3662.25,-1823.2,328.25
3662.5,-1824.4,328.8333333333333
3662.75,-1825.6,329.4166666666667
3663.0,-1826.8,330.0
3663.25,-1828.0,330.5833333333333
3663.5,-1829.2,331.1666666666667
3663.75,-1830.4,331.75
3664.0,-1831.6,332.3333333333333
3664.25,-1832.8,332.9166666666667
3664.5,-1834.0,333.5
3664.75,-1835.2,334.0833333333333
3665.0,-1836.4,334.6666666666667
3665.25,-1837.6,335.25
3665.5,-1838.8,335.8333333333333
3665.75,-1840.0,336.4166666666667
3666.0,-1841.2,337.0
3666.25,-1842.4,337.5833333333333
3666.5,-1843.6,338.1666666666667
3666.75,-1844.8,338.75
3667.0,-1846.0,339.3333333333333
3667.25,-1847.2,339.9166666666667
3667.5,-1848.4,340.5
3667.75,-1849.6,341.0833333333333
3668.0,-1850.8,341.6666666666667
3668.25,-1852.0,342.25
3668.5,-1853.2,342.8333333333333
3668.75,-1854.4,343.4166666666667
3669.0,-1855.6,344.0
3669.25,-1856.8,344.5833333333333
3669.5,-1858.0,345.1666666666667
3669.75,-1859.2,345.75
3670.0,-1860.4,346.3333333333333
3670.25,-1861.6,346.9166666666667
3670.5,-1862.8,347.5
3670.75,-1864.0,348.0833333333333
3671.0,-1865.2,348.6666666666667
3671.25,-1866.4,349.25
3671.5,-1867.6,349.8333333333333
3671.75,-1868.8,350.4166666666667
3672.0,-1870.0,351.0
3624.190476190476,-1870.904761904762,349.8333333333333
3576.3809523809523,-1871.8095238095239,348.6666666666667
3528.5714285714284,-1872.7142857142858,347.5
3480.7619047619046,-1873.6190476190477,346.3333333333333
3432.9523809523807,-1874.5238095238096,345.1666666666667
3385.142857142857,-1875.4285714285713,344.0
3337.3333333333335,-1876.3333333333333,342.8333333333333
3289.5238095238096,-1877.2380952380952,341.6666666666667
3241.714285714286,-1878.142857142857,340.5
3193.904761904762,-1879.047619047619,339.3333333333333
3146.095238095238,-1879.952380952381,338.1666666666667
3098.285714285714,-1880.857142857143,337.0
3050.4761904761904,-1881.7619047619048,335.8333333333333
3002.6666666666665,-1882.6666666666667,334.6666666666667
2954.857142857143,-1883.5714285714287,333.5
2907.0476190476193,-1884.4761904761904,332.3333333333333
2859.2380952380954,-1885.3809523809523,331.1666666666667
2811.4285714285716,-1886.2857142857142,330.0
2763.6190476190477,-1887.1904761904761,328.8333333333333
2715.809523809524,-1888.095238095238,327.6666666666667
2668.0,-1889.0,326.5
2620.190476190476,-1889.904761904762,325.3333333333333
2572.3809523809523,-1890.8095238095239,324.1666666666667
2524.5714285714284,-1891.7142857142858,323.0
2476.7619047619046,-1892.6190476190477,321.8333333333333
2428.9523809523807,-1893.5238095238096,320.6666666666667
2381.142857142857,-1894.4285714285713,319.5
2333.333333333333,-1895.3333333333333,318.3333333333333
2285.523809523809,-1896.2380952380952,317.1666666666667
2237.714285714286,-1897.142857142857,316.0
2189.904761904762,-1898.047619047619,314.8333333333333
2142.095238095238,-1898.952380952381,313.6666666666667
2094.285714285714,-1899.857142857143,312.5
2046.4761904761904,-1900.7619047619048,311.3333333333333
1998.6666666666667,-1901.6666666666667,310.1666666666667
1950.857142857143,-1902.5714285714287,309.0
1903.047619047619,-1903.4761904761904,307.8333333333333
1855.2380952380952,-1904.3809523809523,306.6666666666667
1807.4285714285713,-1905.2857142857142,305.5
1759.6190476190477,-1906.1904761904761,304.3333333333333
1711.8095238095239,-1907.095238095238,303.1666666666667
1664.0,-1908.0,302.0
1660.2291666666667,-1906.0416666666667,303.4375
1656.4583333333333,-1904.0833333333333,304.875
1652.6875,-1902.125,306.3125
1648.9166666666667,-1900.1666666666667,307.75
1645.1458333333333,-1898.2083333333333,309.1875
1641.375,-1896.25,310.625
1637.6041666666667,-1894.2916666666667,312.0625
1633.8333333333333,-1892.3333333333333,313.5
1630.0625,-1890.375,314.9375
1626.2916666666667,-1888.4166666666667,316.375
1622.5208333333333,-1886.4583333333333,317.8125
1618.75,-1884.5,319.25
1614.9791666666667,-1882.5416666666667,320.6875
1611.2083333333333,-1880.5833333333333,322.125
1607.4375,-1878.625,323.5625
1603.6666666666667,-1876.6666666666667,325.0
1599.8958333333333,-1874.7083333333333,326.4375
1596.125,-1872.75,327.875
1592.3541666666667,-1870.7916666666667,329.3125
1588.5833333333333,-1868.8333333333333,330.75
1584.8125,-1866.875,332.1875
1581.0416666666667,-1864.9166666666667,333.625
1577.2708333333333,-1862.9583333333333,335.0625
1573.5,-1861.0,336.5
1569.7291666666667,-1859.0416666666667,337.9375
1565.9583333333333,-1857.0833333333333,339.375
1562.1875,-1855.125,340.8125
1558.4166666666667,-1853.1666666666667,342.25
1554.6458333333333,-1851.2083333333333,343.6875
1550.875,-1849.25,345.125
1547.1041666666667,-1847.2916666666667,346.5625
1543.3333333333333,-1845.3333333333333,348.0
1539.5625,-1843.375,349.4375
1535.7916666666667,-1841.4166666666667,350.875
1532.0208333333333,-1839.4583333333333,352.3125
1528.25,-1837.5,353.75
1524.4791666666667,-1835.5416666666667,355.1875
1520.7083333333333,-1833.5833333333333,356.625
1516.9375,-1831.625,358.0625
1513.1666666666667,-1829.6666666666667,359.5
1509.3958333333333,-1827.7083333333333,360.9375
1505.625,-1825.75,362.375
1501.8541666666667,-1823.7916666666667,363.8125
1498.0833333333333,-1821.8333333333333,365.25
1494.3125,-1819.875,366.6875
1490.5416666666667,-1817.9166666666667,368.125
1486.7708333333333,-1815.9583333333333,369.5625
1483.0,-1814.0,371.0
1485.611111111111,-1815.361111111111,370.8611111111111
1488.2222222222222,-1816.7222222222222,370.72222222222223
1490.8333333333333,-1818.0833333333333,370.5833333333333
1493.4444444444443,-1819.4444444444443,370.44444444444446
1496.0555555555557,-1820.8055555555557,370.30555555555554
1498.6666666666667,-1822.1666666666667,370.1666666666667
1501.2777777777778,-1823.5277777777778,370.02777777777777
1503.888888888889,-1824.888888888889,369.8888888888889
1506.5,-1826.25,369.75
1509.111111111111,-1827.611111111111,369.6111111111111
1511.7222222222222,-1828.9722222222222,369.47222222222223
1514.3333333333333,-1830.3333333333333,369.3333333333333
1516.9444444444443,-1831.6944444444443,369.19444444444446
1519.5555555555557,-1833.0555555555557,369.05555555555554
1522.1666666666667,-1834.4166666666667,368.9166666666667
1524.7777777777778,-1835.7777777777778,368.77777777777777
1527.388888888889,-1837.138888888889,368.6388888888889
1530.0,-1838.5,368.5
1532.611111111111,-1839.861111111111,368.3611111111111
1535.2222222222222,-1841.2222222222222,368.22222222222223
1537.8333333333333,-1842.5833333333333,368.0833333333333
1540.4444444444443,-1843.9444444444443,367.94444444444446
1543.0555555555557,-1845.3055555555557,367.80555555555554
1545.6666666666667,-1846.6666666666667,367.6666666666667
1548.2777777777778,-1848.0277777777778,367.52777777777777
1550.888888888889,-1849.388888888889,367.3888888888889
1553.5,-1850.75,367.25
1556.111111111111,-1852.111111111111,367.1111111111111
1558.7222222222222,-1853.4722222222222,366.97222222222223
1561.3333333333333,-1854.8333333333333,366.8333333333333
1563.9444444444443,-1856.1944444444443,366.69444444444446
1566.5555555555557,-1857.5555555555557,366.55555555555554
1569.1666666666667,-1858.9166666666667,366.4166666666667
1571.7777777777778,-1860.2777777777778,366.27777777777777
1574.388888888889,-1861.638888888889,366.1388888888889
1577.0,-1863.0,366.0
1579.611111111111,-1864.361111111111,365.8611111111111
1582.2222222222222,-1865.7222222222222,365.72222222222223
1584.8333333333333,-1867.0833333333333,365.5833333333333
1587.4444444444443,-1868.4444444444443,365.44444444444446
1590.0555555555557,-1869.8055555555557,365.30555555555554
1592.6666666666667,-1871.1666666666667,365.1666666666667
1595.2777777777778,-1872.5277777777778,365.02777777777777
1597.888888888889,-1873.888888888889,364.8888888888889
1600.5,-1875.25,364.75
1603.111111111111,-1876.611111111111,364.6111111111111
1605.7222222222222,-1877.9722222222222,364.47222222222223
1608.3333333333333,-1879.3333333333333,364.3333333333333
1610.9444444444443,-1880.6944444444443,364.19444444444446
1613.5555555555557,-1882.0555555555557,364.05555555555554
1616.1666666666667,-1883.4166666666667,363.9166666666667
1618.7777777777778,-1884.7777777777778,363.77777777777777
1621.388888888889,-1886.138888888889,363.6388888888889
1624.0,-1887.5,363.5
1626.611111111111,-1888.861111111111,363.3611111111111
1629.2222222222222,-1890.2222222222222,363.22222222222223
1631.8333333333333,-1891.5833333333333,363.0833333333333
1634.4444444444443,-1892.9444444444443,362.94444444444446
1637.0555555555557,-1894.3055555555557,362.80555555555554
1639.6666666666667,-1895.6666666666667,362.6666666666667
1642.2777777777778,-1897.0277777777778,362.52777777777777
1644.888888888889,-1898.388888888889,362.3888888888889
1647.5,-1899.75,362.25
1650.111111111111,-1901.111111111111,362.1111111111111
1652.7222222222222,-1902.4722222222222,361.97222222222223
1655.3333333333333,-1903.8333333333333,361.8333333333333
1657.9444444444443,-1905.1944444444443,361.69444444444446
1660.5555555555557,-1906.5555555555557,361.55555555555554
1663.1666666666667,-1907.9166666666667,361.4166666666667
1665.7777777777778,-1909.2777777777778,361.27777777777777
1668.388888888889,-1910.638888888889,361.1388888888889
1671.0,-1912.0,361.0
1738.2333333333333,-1910.2,360.6
1805.4666666666667,-1908.4,360.2
1872.7,-1906.6,359.8
1939.9333333333334,-1904.8,359.4
2007.1666666666667,-1903.0,359.0
2074.4,-1901.2,358.6
2141.633333333333,-1899.4,358.2
2208.866666666667,-1897.6,357.8
2276.1,-1895.8,357.4
2343.3333333333335,-1894.0,357.0
2410.5666666666666,-1892.2,356.6
2477.8,-1890.4,356.2
2545.0333333333333,-1888.6,355.8
2612.2666666666664,-1886.8,355.4
2679.5,-1885.0,355.0
2746.7333333333336,-1883.2,354.6
2813.9666666666667,-1881.4,354.2
2881.2,-1879.6,353.8
2948.4333333333334,-1877.8,353.4
3015.666666666667,-1876.0,353.0
3082.9,-1874.2,352.6
3150.133333333333,-1872.4,352.2
3217.366666666667,-1870.6,351.8
3284.6,-1868.8,351.4
3351.833333333333,-1867.0,351.0
3419.0666666666666,-1865.2,350.6
3486.3,-1863.4,350.2
3553.5333333333333,-1861.6,349.8
3620.7666666666664,-1859.8,349.4
3688.0,-1858.0,349.0
3651.537037037037,-1822.851851851852,308.22222222222223
3615.074074074074,-1787.7037037037037,267.44444444444446
3578.6111111111113,-1752.5555555555557,226.66666666666666
3542.1481481481483,-1717.4074074074074,185.88888888888889
3505.685185185185,-1682.2592592592594,145.11111111111111
3469.222222222222,-1647.111111111111,104.33333333333331
3432.759259259259,-1611.962962962963,63.55555555555554
3396.2962962962965,-1576.8148148148148,22.77777777777777
3359.8333333333335,-1541.6666666666667,-18.0
3323.3703703703704,-1506.5185185185185,-58.77777777777777
3286.9074074074074,-1471.3703703703704,-99.55555555555554
3250.4444444444443,-1436.2222222222222,-140.33333333333337
3213.9814814814818,-1401.0740740740741,-181.1111111111111
3177.5185185185187,-1365.925925925926,-221.8888888888889
3141.0555555555557,-1330.7777777777778,-262.66666666666663
3104.5925925925926,-1295.6296296296296,-303.44444444444446
3068.1296296296296,-1260.4814814814815,-344.2222222222223
3031.666666666667,-1225.3333333333335,-385.0
2995.2037037037035,-1190.1851851851852,-425.7777777777778
2958.740740740741,-1155.037037037037,-466.55555555555554
2922.277777777778,-1119.888888888889,-507.33333333333337
2885.814814814815,-1084.7407407407409,-548.1111111111111
2849.3518518518517,-1049.5925925925926,-588.8888888888889
2812.8888888888887,-1014.4444444444446,-629.6666666666667
2776.425925925926,-979.2962962962964,-670.4444444444445
2739.962962962963,-944.1481481481483,-711.2222222222222
2703.5,-909.0000000000001,-752.0
2667.037037037037,-873.851851851852,-792.7777777777778
2630.574074074074,-838.7037037037038,-833.5555555555557
2594.1111111111113,-803.5555555555557,-874.3333333333333
2557.6481481481483,-768.4074074074074,-915.1111111111111
2521.185185185185,-733.2592592592594,-955.8888888888889
2484.722222222222,-698.1111111111113,-996.6666666666667
2448.259259259259,-662.962962962963,-1037.4444444444446
2411.7962962962965,-627.814814814815,-1078.2222222222222
2375.3333333333335,-592.6666666666667,-1119.0
2338.8703703703704,-557.5185185185187,-1159.7777777777778
2302.4074074074074,-522.3703703703704,-1200.5555555555557
2265.9444444444443,-487.2222222222224,-1241.3333333333333
2229.4814814814818,-452.07407407407413,-1282.111111111111
2193.0185185185182,-416.9259259259261,-1322.888888888889
2156.5555555555557,-381.7777777777778,-1363.6666666666667
2120.0925925925926,-346.6296296296298,-1404.4444444444446
2083.6296296296296,-311.4814814814815,-1445.2222222222222
2047.1666666666667,-276.3333333333335,-1486.0
2010.7037037037037,-241.18518518518522,-1526.7777777777778
1974.2407407407409,-206.03703703703718,-1567.5555555555557
1937.7777777777778,-170.88888888888914,-1608.3333333333335
1901.3148148148148,-135.74074074074088,-1649.111111111111
1864.851851851852,-100.59259259259284,-1689.888888888889
1828.388888888889,-65.44444444444457,-1730.6666666666665
1791.925925925926,-30.296296296296532,-1771.4444444444443
1755.462962962963,4.851851851851734,-1812.2222222222222
1719.0,40.0,-1853.0
1759.3125,44.770833333333336,-1808.1458333333333
1799.625,49.541666666666664,-1763.2916666666667
1839.9375,54.3125,-1718.4375
1880.25,59.08333333333333,-1673.5833333333333
1920.5625,63.854166666666664,-1628.7291666666667
1960.875,68.625,-1583.875
2001.1875,73.39583333333333,-1539.0208333333335
2041.5,78.16666666666666,-1494.1666666666667
2081.8125,82.9375,-1449.3125
2122.125,87.70833333333333,-1404.4583333333335
2162.4375,92.47916666666666,-1359.6041666666667
2202.75,97.25,-1314.75
2243.0625,102.02083333333333,-1269.8958333333335
2283.375,106.79166666666666,-1225.0416666666667
2323.6875,111.5625,-1180.1875
2364.0,116.33333333333333,-1135.3333333333335
2404.3125,121.10416666666666,-1090.4791666666667
2444.625,125.875,-1045.625
2484.9375,130.64583333333331,-1000.7708333333334
2525.25,135.41666666666666,-955.9166666666667
2565.5625,140.1875,-911.0625
2605.875,144.95833333333331,-866.2083333333334
2646.1875,149.72916666666666,-821.3541666666667
2686.5,154.5,-776.5
2726.8125,159.27083333333331,-731.6458333333335
2767.125,164.04166666666666,-686.7916666666667
2807.4375,168.8125,-641.9375
2847.75,173.58333333333331,-597.0833333333335
2888.0625,178.35416666666666,-552.2291666666667
2928.375,183.125,-507.375
2968.6875,187.89583333333331,-462.5208333333335
3009.0,192.66666666666666,-417.66666666666674
3049.3125,197.4375,-372.8125
3089.625,202.20833333333331,-327.9583333333335
3129.9375,206.97916666666666,-283.10416666666674
3170.25,211.75,-238.25
3210.5625,216.52083333333331,-193.39583333333348
3250.875,221.29166666666666,-148.54166666666674
3291.1875,226.0625,-103.6875
3331.5,230.83333333333331,-58.833333333333485
3371.8125,235.60416666666666,-13.979166666666742
3412.125,240.375,30.875
3452.4375,245.14583333333331,75.72916666666652
3492.75,249.91666666666666,120.58333333333326
3533.0625,254.6875,165.4375
3573.375,259.4583333333333,210.29166666666652
3613.6875,264.22916666666663,255.14583333333303
3654.0,269.0,300.0
3654.3333333333335,225.10416666666666,300.5833333333333
3654.6666666666665,181.20833333333331,301.1666666666667
3655.0,137.3125,301.75
3655.3333333333335,93.41666666666666,302.3333333333333
3655.6666666666665,49.520833333333314,302.9166666666667
3656.0,5.625,303.5
3656.3333333333335,-38.27083333333337,304.0833333333333
3656.6666666666665,-82.16666666666669,304.6666666666667
3657.0,-126.0625,305.25
3657.3333333333335,-169.95833333333337,305.8333333333333
3657.6666666666665,-213.85416666666669,306.4166666666667
3658.0,-257.75,307.0
3658.3333333333335,-301.64583333333337,307.5833333333333
3658.6666666666665,-345.54166666666674,308.1666666666667
3659.0,-389.4375,308.75
3659.3333333333335,-433.33333333333337,309.3333333333333
3659.6666666666665,-477.22916666666674,309.9166666666667
3660.0,-521.125,310.5
3660.3333333333335,-565.0208333333334,311.0833333333333
3660.6666666666665,-608.9166666666667,311.6666666666667
3661.0,-652.8125,312.25
3661.3333333333335,-696.7083333333334,312.8333333333333
3661.6666666666665,-740.6041666666667,313.4166666666667
3662.0,-784.5,314.0
3662.3333333333335,-828.3958333333335,314.5833333333333
3662.6666666666665,-872.2916666666667,315.1666666666667
3663.0,-916.1875,315.75
3663.3333333333335,-960.0833333333335,316.3333333333333
3663.6666666666665,-1003.9791666666667,316.9166666666667
3664.0,-1047.875,317.5
3664.3333333333335,-1091.7708333333335,318.0833333333333
3664.6666666666665,-1135.6666666666667,318.6666666666667
3665.0,-1179.5625,319.25
3665.3333333333335,-1223.4583333333335,319.8333333333333
3665.6666666666665,-1267.3541666666667,320.4166666666667
3666.0,-1311.25,321.0
3666.3333333333335,-1355.1458333333335,321.5833333333333
3666.6666666666665,-1399.0416666666667,322.1666666666667
3667.0,-1442.9375,322.75
3667.3333333333335,-1486.8333333333335,323.3333333333333
3667.6666666666665,-1530.7291666666667,323.9166666666667
3668.0,-1574.625,324.5
3668.3333333333335,-1618.5208333333335,325.0833333333333
3668.6666666666665,-1662.4166666666667,325.6666666666667
3669.0,-1706.3125,326.25
3669.3333333333335,-1750.2083333333335,326.8333333333333
3669.6666666666665,-1794.104166666667,327.4166666666667
3670.0,-1838.0,328.0
3625.0833333333335,-1838.6875,328.5208333333333
3580.1666666666665,-1839.375,329.0416666666667
3535.25,-1840.0625,329.5625
3490.3333333333335,-1840.75,330.0833333333333
3445.4166666666665,-1841.4375,330.6041666666667
3400.5,-1842.125,331.125
3355.5833333333335,-1842.8125,331.6458333333333
3310.6666666666665,-1843.5,332.1666666666667
3265.75,-1844.1875,332.6875
3220.8333333333335,-1844.875,333.2083333333333
3175.9166666666665,-1845.5625,333.7291666666667
3131.0,-1846.25,334.25
3086.0833333333335,-1846.9375,334.7708333333333
3041.166666666667,-1847.625,335.2916666666667
2996.25,-1848.3125,335.8125
2951.3333333333335,-1849.0,336.3333333333333
2906.416666666667,-1849.6875,336.8541666666667
2861.5,-1850.375,337.375
2816.5833333333335,-1851.0625,337.8958333333333
2771.666666666667,-1851.75,338.4166666666667
2726.75,-1852.4375,338.9375
2681.8333333333335,-1853.125,339.4583333333333
2636.916666666667,-1853.8125,339.9791666666667
2592.0,-1854.5,340.5
2547.0833333333335,-1855.1875,341.0208333333333
2502.166666666667,-1855.875,341.5416666666667
2457.25,-1856.5625,342.0625
2412.3333333333335,-1857.25,342.5833333333333
2367.416666666667,-1857.9375,343.1041666666667
2322.5,-1858.625,343.625
2277.5833333333335,-1859.3125,344.1458333333333
2232.666666666667,-1860.0,344.6666666666667
2187.75,-1860.6875,345.1875
2142.8333333333335,-1861.375,345.7083333333333
2097.916666666667,-1862.0625,346.2291666666667
2053.0,-1862.75,346.75
2008.0833333333335,-1863.4375,347.2708333333333
1963.1666666666667,-1864.125,347.7916666666667
1918.25,-1864.8125,348.3125
1873.3333333333335,-1865.5,348.8333333333333
1828.4166666666667,-1866.1875,349.3541666666667
1783.5,-1866.875,349.875
1738.5833333333335,-1867.5625,350.3958333333333
1693.6666666666667,-1868.25,350.9166666666667
1648.75,-1868.9375,351.4375
1603.8333333333335,-1869.625,351.9583333333333
1558.916666666667,-1870.3125,352.4791666666667
1514.0,-1871.0,353.0
1549.9,-1870.6166666666666,352.28333333333336
1585.8,-1870.2333333333333,351.56666666666666
1621.7,-1869.85,350.85
1657.6,-1869.4666666666667,350.1333333333333
1693.5,-1869.0833333333333,349.4166666666667
1729.4,-1868.7,348.7
1765.3,-1868.3166666666666,347.98333333333335
1801.2,-1867.9333333333334,347.26666666666665
1837.1,-1867.55,346.55
1873.0,-1867.1666666666667,345.8333333333333
1908.9,-1866.7833333333333,345.1166666666667
1944.8,-1866.4,344.4
1980.7,-1866.0166666666667,343.68333333333334
2016.6,-1865.6333333333334,342.96666666666664
2052.5,-1865.25,342.25
2088.4,-1864.8666666666666,341.53333333333336
2124.3,-1864.4833333333333,340.81666666666666
2160.2,-1864.1,340.1
2196.1,-1863.7166666666667,339.3833333333333
2232.0,-1863.3333333333333,338.6666666666667
2267.9,-1862.95,337.95
2303.8,-1862.5666666666666,337.23333333333335
2339.7,-1862.1833333333334,336.51666666666665
2375.6,-1861.8,335.8
2411.5,-1861.4166666666667,335.0833333333333
2447.4,-1861.0333333333333,334.3666666666667
2483.3,-1860.65,333.65
2519.2,-1860.2666666666667,332.93333333333334
2555.1,-1859.8833333333334,332.21666666666664
2591.0,-1859.5,331.5
2626.8999999999996,-1859.1166666666666,330.7833333333333
2662.8,-1858.7333333333333,330.06666666666666
2698.7,-1858.35,329.35
2734.6,-1857.9666666666667,328.6333333333333
2770.5,-1857.5833333333333,327.9166666666667
2806.3999999999996,-1857.2,327.2
2842.3,-1856.8166666666666,326.48333333333335
2878.2,-1856.4333333333334,325.76666666666665
2914.1,-1856.05,325.05
2950.0,-1855.6666666666667,324.3333333333333
2985.8999999999996,-1855.2833333333333,323.6166666666667
3021.8,-1854.9,322.9
3057.7,-1854.5166666666667,322.18333333333334
3093.6,-1854.1333333333334,321.46666666666664
3129.5,-1853.75,320.75
3165.3999999999996,-1853.3666666666666,320.0333333333333
3201.3,-1852.9833333333333,319.31666666666666
3237.2,-1852.6,318.6
3273.1,-1852.2166666666667,317.8833333333333
3309.0,-1851.8333333333333,317.1666666666667
3344.8999999999996,-1851.45,316.45
3380.8,-1851.0666666666666,315.73333333333335
3416.7,-1850.6833333333334,315.01666666666665
3452.6,-1850.3,314.3
3488.5,-1849.9166666666667,313.5833333333333
3524.3999999999996,-1849.5333333333333,312.8666666666667
3560.3,-1849.15,312.15
3596.2,-1848.7666666666667,311.43333333333334
3632.1,-1848.3833333333334,310.7166666666667
3668.0,-1848.0,310.0
3628.425925925926,-1776.4814814814815,270.14814814814815
3588.8518518518517,-1704.962962962963,230.2962962962963
3549.277777777778,-1633.4444444444443,190.44444444444443
3509.7037037037035,-1561.9259259259259,150.59259259259258
3470.1296296296296,-1490.4074074074074,110.74074074074073
3430.5555555555557,-1418.888888888889,70.88888888888886
3390.9814814814813,-1347.3703703703704,31.03703703703701
3351.4074074074074,-1275.8518518518517,-8.814814814814838
3311.8333333333335,-1204.3333333333335,-48.666666666666686
3272.259259259259,-1132.8148148148148,-88.51851851851853
3232.685185185185,-1061.2962962962963,-128.37037037037038
3193.1111111111113,-989.7777777777778,-168.22222222222229
3153.537037037037,-918.2592592592592,-208.07407407407413
3113.962962962963,-846.7407407407408,-247.92592592592598
3074.3888888888887,-775.2222222222222,-287.7777777777778
3034.814814814815,-703.7037037037037,-327.6296296296297
2995.240740740741,-632.1851851851852,-367.4814814814815
2955.6666666666665,-560.6666666666667,-407.33333333333337
2916.0925925925926,-489.14814814814804,-447.1851851851852
2876.5185185185182,-417.62962962962956,-487.03703703703707
2836.9444444444443,-346.1111111111111,-526.8888888888889
2797.3703703703704,-274.5925925925926,-566.7407407407408
2757.7962962962965,-203.07407407407413,-606.5925925925926
2718.222222222222,-131.55555555555566,-646.4444444444446
2678.648148148148,-60.03703703703695,-686.2962962962964
2639.074074074074,11.481481481481524,-726.1481481481483
2599.5,83.0,-766.0
2559.925925925926,154.51851851851848,-805.851851851852
2520.3518518518517,226.03703703703695,-845.7037037037037
2480.777777777778,297.55555555555566,-885.5555555555557
2441.2037037037035,369.0740740740739,-925.4074074074074
2401.6296296296296,440.5925925925926,-965.2592592592594
2362.0555555555557,512.1111111111113,-1005.1111111111113
2322.4814814814813,583.6296296296296,-1044.962962962963
2282.9074074074074,655.1481481481483,-1084.814814814815
2243.333333333333,726.6666666666665,-1124.6666666666667
2203.759259259259,798.1851851851852,-1164.5185185185187
2164.185185185185,869.7037037037039,-1204.3703703703704
2124.6111111111113,941.2222222222222,-1244.2222222222224
2085.037037037037,1012.7407407407409,-1284.0740740740741
2045.4629629629628,1084.2592592592591,-1323.925925925926
2005.8888888888887,1155.7777777777778,-1363.7777777777778
1966.3148148148148,1227.2962962962965,-1403.6296296296298
1926.7407407407406,1298.8148148148148,-1443.4814814814815
1887.1666666666665,1370.3333333333335,-1483.3333333333335
1847.5925925925926,1441.8518518518517,-1523.1851851851852
1808.0185185185185,1513.3703703703704,-1563.0370370370372
1768.4444444444443,1584.8888888888887,-1602.8888888888891
1728.8703703703702,1656.4074074074074,-1642.7407407407409
1689.296296296296,1727.925925925926,-1682.5925925925928
1649.7222222222222,1799.4444444444443,-1722.4444444444446
1610.1481481481478,1870.962962962963,-1762.2962962962965
1570.574074074074,1942.4814814814813,-1802.1481481481483
1531.0,2014.0,-1842.0
1529.8055555555557,2012.138888888889,-1843.138888888889
1528.611111111111,2010.2777777777778,-1844.2777777777778
1527.4166666666667,2008.4166666666667,-1845.4166666666667
1526.2222222222222,2006.5555555555557,-1846.5555555555557
1525.0277777777778,2004.6944444444443,-1847.6944444444443
1523.8333333333333,2002.8333333333333,-1848.8333333333333
1522.638888888889,2000.9722222222222,-1849.9722222222222
1521.4444444444443,1999.111111111111,-1851.111111111111
1520.25,1997.25,-1852.25
1519.0555555555557,1995.388888888889,-1853.388888888889
1517.861111111111,1993.5277777777778,-1854.5277777777778
1516.6666666666667,1991.6666666666667,-1855.6666666666667
1515.4722222222222,1989.8055555555557,-1856.8055555555557
1514.2777777777778,1987.9444444444443,-1857.9444444444443
1513.0833333333333,1986.0833333333333,-1859.0833333333333
1511.888888888889,1984.2222222222222,-1860.2222222222222
1510.6944444444443,1982.361111111111,-1861.361111111111
1509.5,1980.5,-1862.5
1508.3055555555557,1978.638888888889,-1863.638888888889
1507.111111111111,1976.7777777777778,-1864.7777777777778
1505.9166666666667,1974.9166666666667,-1865.9166666666667
1504.7222222222222,1973.0555555555557,-1867.0555555555557
1503.5277777777778,1971.1944444444443,-1868.1944444444443
1502.3333333333333,1969.3333333333333,-1869.3333333333333
1501.138888888889,1967.4722222222222,-1870.4722222222222
1499.9444444444443,1965.611111111111,-1871.611111111111
1498.75,1963.75,-1872.75
1497.5555555555557,1961.888888888889,-1873.888888888889
1496.361111111111,1960.0277777777778,-1875.0277777777778
1495.1666666666667,1958.1666666666667,-1876.1666666666667
1493.9722222222222,1956.3055555555557,-1877.3055555555557
1492.7777777777778,1954.4444444444443,-1878.4444444444443
1491.5833333333333,1952.5833333333333,-1879.5833333333333
1490.388888888889,1950.7222222222222,-1880.7222222222222
1489.1944444444443,1948.861111111111,-1881.861111111111
1488.0,1947.0,-1883.0
1524.25,1914.7,-1846.6833333333334
1560.5,1882.4,-1810.3666666666666
1596.75,1850.1,-1774.05
1633.0,1817.8,-1737.7333333333333
1669.25,1785.5,-1701.4166666666667
1705.5,1753.2,-1665.1
1741.75,1720.9,-1628.7833333333333
1778.0,1688.6,-1592.4666666666667
1814.25,1656.3,-1556.15
1850.5,1624.0,-1519.8333333333333
1886.75,1591.7,-1483.5166666666667
1923.0,1559.4,-1447.1999999999998
1959.25,1527.1,-1410.8833333333332
1995.5,1494.8000000000002,-1374.5666666666666
2031.75,1462.5,-1338.25
2068.0,1430.2,-1301.9333333333334
2104.25,1397.9,-1265.6166666666666
2140.5,1365.6,-1229.3
2176.75,1333.3000000000002,-1192.9833333333331
2213.0,1301.0,-1156.6666666666665
2249.25,1268.7,-1120.35
2285.5,1236.4,-1084.0333333333333
2321.75,1204.1,-1047.7166666666667
2358.0,1171.8000000000002,-1011.3999999999999
2394.25,1139.5,-975.0833333333333
2430.5,1107.2,-938.7666666666665
2466.75,1074.9,-902.4499999999999
2503.0,1042.6000000000001,-866.1333333333332
2539.25,1010.3000000000001,-829.8166666666666
2575.5,978.0000000000001,-793.5
2611.75,945.7,-757.1833333333332
2648.0,913.4000000000001,-720.8666666666666
2684.25,881.1000000000001,-684.55
2720.5,848.8000000000002,-648.2333333333331
2756.75,816.5,-611.9166666666665
2793.0,784.2,-575.5999999999999
2829.25,751.9000000000001,-539.2833333333333
2865.5,719.6000000000001,-502.96666666666647
2901.75,687.3000000000002,-466.64999999999986
2938.0,655.0,-430.33333333333326
2974.25,622.7,-394.0166666666664
3010.5,590.4000000000001,-357.6999999999998
3046.75,558.1000000000001,-321.3833333333332
3083.0,525.8000000000002,-285.0666666666666
3119.25,493.5000000000002,-248.74999999999977
3155.5,461.20000000000005,-212.43333333333317
3191.75,428.9000000000001,-176.11666666666656
3228.0,396.60000000000014,-139.79999999999973
3264.25,364.3000000000002,-103.48333333333312
3300.5,332.0000000000002,-67.16666666666652
3336.75,299.70000000000005,-30.84999999999991
3373.0,267.4000000000001,5.466666666666924
3409.25,235.10000000000014,41.78333333333353
3445.5,202.80000000000018,78.10000000000014
3481.75,170.50000000000023,114.41666666666674
3518.0,138.20000000000027,150.73333333333358
3554.25,105.90000000000009,187.05000000000018
3590.5,73.60000000000014,223.3666666666668
3626.75,41.30000000000018,259.6833333333334
3663.0,9.0,296.0
3663.0714285714284,57.285714285714285,296.2857142857143
3663.1428571428573,105.57142857142857,296.57142857142856
3663.214285714286,153.85714285714286,296.85714285714283
3663.285714285714,202.14285714285714,297.14285714285717
3663.3571428571427,250.42857142857142,297.42857142857144
3663.4285714285716,298.7142857142857,297.7142857142857
3663.5,347.0,298.0
3663.5714285714284,395.2857142857143,298.2857142857143
3663.6428571428573,443.57142857142856,298.57142857142856
3663.714285714286,491.85714285714283,298.85714285714283
3663.785714285714,540.1428571428571,299.14285714285717
3663.8571428571427,588.4285714285714,299.42857142857144
3663.9285714285716,636.7142857142857,299.7142857142857
3664.0,685.0,300.0
3664.0714285714284,733.2857142857142,300.2857142857143
3664.1428571428573,781.5714285714286,300.57142857142856
3664.214285714286,829.8571428571429,300.85714285714283
3664.285714285714,878.1428571428571,301.14285714285717
3664.3571428571427,926.4285714285714,301.42857142857144
3664.4285714285716,974.7142857142857,301.7142857142857
3664.5,1023.0,302.0
3664.5714285714284,1071.2857142857142,302.2857142857143
3664.6428571428573,1119.5714285714284,302.57142857142856
3664.714285714286,1167.857142857143,302.85714285714283
3664.785714285714,1216.142857142857,303.14285714285717
3664.8571428571427,1264.4285714285713,303.42857142857144
3664.9285714285716,1312.7142857142858,303.7142857142857
3665.0,1361.0,304.0
3665.0714285714284,1409.2857142857142,304.2857142857143
3665.1428571428573,1457.5714285714284,304.57142857142856
3665.214285714286,1505.857142857143,304.85714285714283
3665.285714285714,1554.142857142857,305.14285714285717
3665.3571428571427,1602.4285714285713,305.42857142857144
3665.4285714285716,1650.7142857142858,305.7142857142857
3665.5,1699.0,306.0
3665.5714285714284,1747.2857142857142,306.2857142857143
3665.6428571428573,1795.5714285714284,306.57142857142856
3665.714285714286,1843.857142857143,306.85714285714283
3665.785714285714,1892.142857142857,307.14285714285717
3665.8571428571427,1940.4285714285713,307.42857142857144
3665.9285714285716,1988.7142857142858,307.7142857142857
3666.0,2037.0,308.0
3665.3958333333335,2035.3541666666667,307.0
3664.7916666666665,2033.7083333333333,306.0
3664.1875,2032.0625,305.0
3663.5833333333335,2030.4166666666667,304.0
3662.9791666666665,2028.7708333333333,303.0
3662.375,2027.125,302.0
3661.7708333333335,2025.4791666666667,301.0
3661.1666666666665,2023.8333333333333,300.0
3660.5625,2022.1875,299.0
3659.9583333333335,2020.5416666666667,298.0
3659.3541666666665,2018.8958333333333,297.0
3658.75,2017.25,296.0
3658.1458333333335,2015.6041666666667,295.0
3657.5416666666665,2013.9583333333333,294.0
3656.9375,2012.3125,293.0
3656.3333333333335,2010.6666666666667,292.0
3655.7291666666665,2009.0208333333333,291.0
3655.125,2007.375,290.0
3654.5208333333335,2005.7291666666667,289.0
3653.9166666666665,2004.0833333333333,288.0
3653.3125,2002.4375,287.0
3652.7083333333335,2000.7916666666667,286.0
3652.1041666666665,1999.1458333333333,285.0
3651.5,1997.5,284.0
3650.8958333333335,1995.8541666666667,283.0
3650.2916666666665,1994.2083333333333,282.0
3649.6875,1992.5625,281.0
3649.0833333333335,1990.9166666666667,280.0
3648.4791666666665,1989.2708333333333,279.0
3647.875,1987.625,278.0
3647.2708333333335,1985.9791666666667,277.0
3646.6666666666665,1984.3333333333333,276.0
3646.0625,1982.6875,275.0
3645.4583333333335,1981.0416666666667,274.0
3644.8541666666665,1979.3958333333333,273.0
3644.25,1977.75,272.0
3643.6458333333335,1976.1041666666667,271.0
3643.0416666666665,1974.4583333333333,270.0
3642.4375,1972.8125,269.0
3641.8333333333335,1971.1666666666667,268.0
3641.2291666666665,1969.5208333333333,267.0
3640.625,1967.875,266.0
3640.0208333333335,1966.2291666666667,265.0
3639.4166666666665,1964.5833333333333,264.0
3638.8125,1962.9375,263.0
3638.2083333333335,1961.2916666666667,262.0
3637.6041666666665,1959.6458333333333,261.0
3637.0,1958.0,260.0
3636.766666666667,1959.1,260.05
3636.5333333333333,1960.2,260.1
3636.3,1961.3,260.15
3636.0666666666666,1962.4,260.2
3635.8333333333335,1963.5,260.25
3635.6,1964.6,260.3
3635.366666666667,1965.7,260.35
3635.133333333333,1966.8,260.4
3634.9,1967.9,260.45
3634.6666666666665,1969.0,260.5
3634.4333333333334,1970.1,260.55
3634.2,1971.2,260.6
3633.9666666666667,1972.3,260.65
3633.733333333333,1973.4,260.7
3633.5,1974.5,260.75
3633.266666666667,1975.6,260.8
3633.0333333333333,1976.7,260.85
3632.8,1977.8,260.9
3632.5666666666666,1978.9,260.95
3632.3333333333335,1980.0,261.0
3632.1,1981.1,261.05
3631.866666666667,1982.2,261.1
3631.633333333333,1983.3,261.15
3631.4,1984.4,261.2
3631.1666666666665,1985.5,261.25
3630.9333333333334,1986.6,261.3
3630.7,1987.7,261.35
3630.4666666666667,1988.8,261.4
3630.233333333333,1989.9,261.45
3630.0,1991.0,261.5
3629.766666666667,1992.1,261.55
3629.5333333333333,1993.2,261.6
3629.3,1994.3,261.65
3629.0666666666666,1995.4,261.7
3628.8333333333335,1996.5,261.75
3628.6,1997.6,261.8
3628.366666666667,1998.7,261.85
3628.133333333333,1999.8,261.9
3627.9,2000.9,261.95
3627.6666666666665,2002.0,262.0
3627.4333333333334,2003.1,262.05
3627.2,2004.2,262.1
3626.9666666666667,2005.3,262.15
3626.733333333333,2006.4,262.2
3626.5,2007.5,262.25
3626.266666666667,2008.6,262.3
3626.0333333333333,2009.7,262.35
3625.8,2010.8,262.4
3625.5666666666666,2011.9,262.45
3625.3333333333335,2013.0,262.5
3625.1,2014.1,262.55
3624.866666666667,2015.2,262.6
3624.633333333333,2016.3,262.65
3624.4,2017.4,262.7
3624.1666666666665,2018.5,262.75
3623.9333333333334,2019.6,262.8
3623.7,2020.7,262.85
3623.4666666666667,2021.8,262.9
3623.233333333333,2022.9,262.95
3623.0,2024.0,263.0
