timestamp,accX,accY,accZ,ppg,spO2
2026-01-10 20:42:21.220,1676.0,-1885.0,366.0,4867.0,6243.0
2026-01-10 20:42:21.240,1715.7843137254902,-1884.1764705882354,365.3333333333333,4867.313725490196,6243.0392156862745
2026-01-10 20:42:21.260,1755.5686274509803,-1883.3529411764705,364.6666666666667,4867.6274509803925,6243.078431372549
2026-01-10 20:42:21.280,1795.3529411764705,-1882.5294117647059,364.0,4867.941176470588,6243.117647058823
2026-01-10 20:42:21.300,1835.1372549019607,-1881.7058823529412,363.3333333333333,4868.254901960784,6243.156862745098
2026-01-10 20:42:21.320,1874.921568627451,-1880.8823529411766,362.6666666666667,4868.568627450981,6243.196078431372
2026-01-10 20:42:21.340,1914.7058823529412,-1880.0588235294117,362.0,4868.882352941177,6243.235294117647
2026-01-10 20:42:21.360,1954.4901960784314,-1879.235294117647,361.3333333333333,4869.196078431372,6243.274509803921
2026-01-10 20:42:21.380,1994.2745098039215,-1878.4117647058824,360.6666666666667,4869.509803921569,6243.313725490196
2026-01-10 20:42:21.400,2034.0588235294117,-1877.5882352941176,360.0,4869.823529411765,6243.35294117647
2026-01-10 20:42:21.420,2073.843137254902,-1876.764705882353,359.3333333333333,4870.137254901961,6243.392156862745
2026-01-10 20:42:21.440,2113.627450980392,-1875.9411764705883,358.6666666666667,4870.450980392156,6243.431372549019
2026-01-10 20:42:21.460,2153.4117647058824,-1875.1176470588234,358.0,4870.764705882353,6243.470588235294
2026-01-10 20:42:21.480,2193.1960784313724,-1874.2941176470588,357.3333333333333,4871.078431372549,6243.509803921569
2026-01-10 20:42:21.500,2232.9803921568628,-1873.4705882352941,356.6666666666667,4871.392156862745,6243.549019607844
2026-01-10 20:42:21.520,2272.764705882353,-1872.6470588235295,356.0,4871.705882352941,6243.588235294118
2026-01-10 20:42:21.540,2312.549019607843,-1871.8235294117646,355.3333333333333,4872.019607843137,6243.6274509803925
2026-01-10 20:42:21.560,2352.333333333333,-1871.0,354.6666666666667,4872.333333333333,6243.666666666667
2026-01-10 20:42:21.580,2392.1176470588234,-1870.1764705882354,354.0,4872.64705882353,6243.705882352941
2026-01-10 20:42:21.600,2431.901960784314,-1869.3529411764705,353.3333333333333,4872.9607843137255,6243.745098039216
2026-01-10 20:42:21.620,2471.6862745098038,-1868.5294117647059,352.6666666666667,4873.274509803921,6243.78431372549
2026-01-10 20:42:21.640,2511.470588235294,-1867.7058823529412,352.0,4873.588235294118,6243.823529411765
2026-01-10 20:42:21.660,2551.254901960784,-1866.8823529411766,351.3333333333333,4873.901960784314,6243.862745098039
2026-01-10 20:42:21.680,2591.0392156862745,-1866.0588235294117,350.6666666666667,4874.21568627451,6243.901960784314
2026-01-10 20:42:21.700,2630.823529411765,-1865.235294117647,350.0,4874.529411764706,6243.941176470588
2026-01-10 20:42:21.720,2670.607843137255,-1864.4117647058824,349.3333333333333,4874.843137254902,6243.980392156863
2026-01-10 20:42:21.740,2710.3921568627447,-1863.5882352941176,348.6666666666667,4875.156862745098,6244.019607843137
2026-01-10 20:42:21.760,2750.176470588235,-1862.764705882353,348.0,4875.470588235294,6244.058823529412
2026-01-10 20:42:21.780,2789.9607843137255,-1861.9411764705883,347.3333333333333,4875.78431372549,6244.098039215686
2026-01-10 20:42:21.800,2829.745098039216,-1861.1176470588234,346.6666666666667,4876.098039215686,6244.137254901961
2026-01-10 20:42:21.820,2869.529411764706,-1860.2941176470588,346.0,4876.411764705882,6244.176470588235
2026-01-10 20:42:21.840,2909.313725490196,-1859.4705882352941,345.3333333333333,4876.725490196079,6244.21568627451
2026-01-10 20:42:21.860,2949.098039215686,-1858.6470588235295,344.6666666666667,4877.0392156862745,6244.254901960784
2026-01-10 20:42:21.880,2988.8823529411766,-1857.8235294117646,344.0,4877.35294117647,6244.294117647059
2026-01-10 20:42:21.900,3028.6666666666665,-1857.0,343.3333333333333,4877.666666666667,6244.333333333333
2026-01-10 20:42:21.920,3068.4509803921565,-1856.1764705882354,342.6666666666667,4877.980392156863,6244.3725490196075
2026-01-10 20:42:21.940,3108.235294117647,-1855.3529411764705,342.0,4878.294117647059,6244.411764705882
2026-01-10 20:42:21.960,3148.0196078431372,-1854.5294117647059,341.3333333333333,4878.607843137255,6244.450980392156
2026-01-10 20:42:21.980,3187.8039215686276,-1853.7058823529412,340.6666666666667,4878.921568627451,6244.490196078431
2026-01-10 20:42:22.000,3227.5882352941176,-1852.8823529411766,340.0,4879.235294117647,6244.529411764706
2026-01-10 20:42:22.020,3267.3725490196075,-1852.0588235294117,339.3333333333333,4879.549019607844,6244.568627450981
2026-01-10 20:42:22.040,3307.156862745098,-1851.235294117647,338.6666666666667,4879.862745098039,6244.607843137255
2026-01-10 20:42:22.060,3346.9411764705883,-1850.4117647058824,338.0,4880.176470588235,6244.64705882353
2026-01-10 20:42:22.080,3386.725490196078,-1849.5882352941176,337.3333333333333,4880.490196078431,6244.686274509804
2026-01-10 20:42:22.100,3426.5098039215686,-1848.764705882353,336.6666666666667,4880.803921568628,6244.725490196079
2026-01-10 20:42:22.120,3466.2941176470586,-1847.9411764705883,336.0,4881.117647058823,6244.764705882353
2026-01-10 20:42:22.140,3506.078431372549,-1847.1176470588234,335.3333333333333,4881.431372549019,6244.803921568628
2026-01-10 20:42:22.160,3545.8627450980393,-1846.2941176470588,334.6666666666667,4881.745098039216,6244.843137254902
2026-01-10 20:42:22.180,3585.6470588235293,-1845.4705882352941,334.0,4882.058823529412,6244.882352941177
2026-01-10 20:42:22.200,3625.431372549019,-1844.6470588235295,333.3333333333333,4882.3725490196075,6244.921568627451
2026-01-10 20:42:22.220,3665.2156862745096,-1843.8235294117646,332.6666666666667,4882.686274509804,6244.9607843137255
2026-01-10 20:42:22.240,3705.0,-1843.0,332.0,4883.0,6245.0
2026-01-10 20:42:22.260,3665.725490196078,-1842.9803921568628,332.4901960784314,4883.3125,6245.666666666667
2026-01-10 20:42:22.280,3626.450980392157,-1842.9607843137255,332.98039215686276,4883.625,6246.333333333333
2026-01-10 20:42:22.300,3587.176470588235,-1842.9411764705883,333.47058823529414,4883.9375,6247.0
2026-01-10 20:42:22.320,3547.901960784314,-1842.921568627451,333.96078431372547,4884.25,6247.666666666667
2026-01-10 20:42:22.340,3508.627450980392,-1842.9019607843138,334.45098039215685,4884.5625,6248.333333333333
2026-01-10 20:42:22.360,3469.3529411764707,-1842.8823529411766,334.94117647058823,4884.875,6249.0
2026-01-10 20:42:22.380,3430.078431372549,-1842.862745098039,335.4313725490196,4885.1875,6249.666666666667
2026-01-10 20:42:22.400,3390.8039215686276,-1842.8431372549019,335.921568627451,4885.5,6250.333333333333
2026-01-10 20:42:22.420,3351.529411764706,-1842.8235294117646,336.4117647058824,4885.8125,6251.0
2026-01-10 20:42:22.440,3312.254901960784,-1842.8039215686274,336.9019607843137,4886.125,6251.666666666667
2026-01-10 20:42:22.460,3272.9803921568628,-1842.7843137254902,337.3921568627451,4886.4375,6252.333333333333
2026-01-10 20:42:22.480,3233.7058823529414,-1842.764705882353,337.88235294117646,4886.75,6253.0
2026-01-10 20:42:22.500,3194.4313725490197,-1842.7450980392157,338.37254901960785,4887.0625,6253.666666666667
2026-01-10 20:42:22.520,3155.156862745098,-1842.7254901960785,338.8627450980392,4887.375,6254.333333333333
2026-01-10 20:42:22.540,3115.8823529411766,-1842.7058823529412,339.3529411764706,4887.6875,6255.0
2026-01-10 20:42:22.560,3076.607843137255,-1842.686274509804,339.84313725490193,4888.0,6255.666666666667
2026-01-10 20:42:22.580,3037.3333333333335,-1842.6666666666667,340.3333333333333,4888.3125,6256.333333333333
2026-01-10 20:42:22.600,2998.0588235294117,-1842.6470588235295,340.8235294117647,4888.625,6257.0
2026-01-10 20:42:22.620,2958.7843137254904,-1842.6274509803923,341.3137254901961,4888.9375,6257.666666666667
2026-01-10 20:42:22.640,2919.5098039215686,-1842.6078431372548,341.80392156862746,4889.25,6258.333333333333
2026-01-10 20:42:22.660,2880.235294117647,-1842.5882352941176,342.29411764705884,4889.5625,6259.0
2026-01-10 20:42:22.680,2840.9607843137255,-1842.5686274509803,342.7843137254902,4889.875,6259.666666666667
2026-01-10 20:42:22.700,2801.686274509804,-1842.549019607843,343.27450980392155,4890.1875,6260.333333333333
2026-01-10 20:42:22.720,2762.4117647058824,-1842.5294117647059,343.7647058823529,4890.5,6261.0
2026-01-10 20:42:22.740,2723.1372549019607,-1842.5098039215686,344.2549019607843,4890.8125,6261.666666666667
2026-01-10 20:42:22.760,2683.8627450980393,-1842.4901960784314,344.7450980392157,4891.125,6262.333333333333
2026-01-10 20:42:22.780,2644.5882352941176,-1842.4705882352941,345.2352941176471,4891.4375,6263.0
2026-01-10 20:42:22.800,2605.313725490196,-1842.450980392157,345.72549019607845,4891.75,6263.666666666667
2026-01-10 20:42:22.820,2566.0392156862745,-1842.4313725490197,346.2156862745098,4892.0625,6264.333333333333
2026-01-10 20:42:22.840,2526.764705882353,-1842.4117647058824,346.70588235294116,4892.375,6265.0
2026-01-10 20:42:22.860,2487.4901960784314,-1842.3921568627452,347.19607843137254,4892.6875,6265.666666666667
2026-01-10 20:42:22.880,2448.2156862745096,-1842.3725490196077,347.6862745098039,4893.0,6266.333333333333
2026-01-10 20:42:22.900,2408.9411764705883,-1842.3529411764705,348.1764705882353,4893.3125,6267.0
2026-01-10 20:42:22.920,2369.666666666667,-1842.3333333333333,348.6666666666667,4893.625,6267.666666666667
2026-01-10 20:42:22.940,2330.392156862745,-1842.313725490196,349.156862745098,4893.9375,6268.333333333333
2026-01-10 20:42:22.960,2291.1176470588234,-1842.2941176470588,349.6470588235294,4894.25,6269.0
2026-01-10 20:42:22.980,2251.843137254902,-1842.2745098039215,350.1372549019608,4894.5625,6269.666666666667
2026-01-10 20:42:23.000,2212.5686274509803,-1842.2549019607843,350.62745098039215,4894.875,6270.333333333333
2026-01-10 20:42:23.020,2173.2941176470586,-1842.235294117647,351.11764705882354,4895.1875,6271.0
2026-01-10 20:42:23.040,2134.0196078431372,-1842.2156862745098,351.6078431372549,4895.5,6271.666666666667
2026-01-10 20:42:23.060,2094.745098039216,-1842.1960784313726,352.0980392156863,4895.8125,6272.333333333333
2026-01-10 20:42:23.080,2055.470588235294,-1842.1764705882354,352.5882352941176,4896.125,6273.0
2026-01-10 20:42:23.100,2016.1960784313726,-1842.1568627450981,353.078431372549,4896.4375,6273.666666666667
2026-01-10 20:42:23.120,1976.921568627451,-1842.137254901961,353.5686274509804,4896.75,6274.333333333333
2026-01-10 20:42:23.140,1937.6470588235295,-1842.1176470588234,354.05882352941177,4897.0625,6275.0
2026-01-10 20:42:23.160,1898.372549019608,-1842.0980392156862,354.54901960784315,4897.375,6275.666666666667
2026-01-10 20:42:23.180,1859.0980392156864,-1842.078431372549,355.03921568627453,4897.6875,6276.333333333333
2026-01-10 20:42:23.200,1819.8235294117649,-1842.0588235294117,355.52941176470586,4898.0,6277.0
2026-01-10 20:42:23.220,1780.549019607843,-1842.0392156862745,356.01960784313724,4897.64,6276.84
2026-01-10 20:42:23.240,1741.2745098039215,-1842.0196078431372,356.5098039215686,4897.28,6276.68
2026-01-10 20:42:23.260,1702.0,-1842.0,357.0,4896.92,6276.52
2026-01-10 20:42:23.280,1744.4893617021276,-1842.1063829787233,355.3404255319149,4896.56,6276.36
2026-01-10 20:42:23.300,1786.9787234042553,-1842.212765957447,353.6808510638298,4896.2,6276.2
2026-01-10 20:42:23.320,1829.468085106383,-1842.3191489361702,352.02127659574467,4895.84,6276.04
2026-01-10 20:42:23.340,1871.9574468085107,-1842.4255319148936,350.36170212765956,4895.48,6275.88
2026-01-10 20:42:23.360,1914.4468085106382,-1842.531914893617,348.70212765957444,4895.12,6275.72
2026-01-10 20:42:23.380,1956.936170212766,-1842.6382978723404,347.04255319148933,4894.76,6275.56
2026-01-10 20:42:23.400,1999.4255319148936,-1842.7446808510638,345.3829787234043,4894.4,6275.4
2026-01-10 20:42:23.420,2041.9148936170213,-1842.8510638297873,343.72340425531917,4894.04,6275.24
2026-01-10 20:42:23.440,2084.404255319149,-1842.9574468085107,342.06382978723406,4893.68,6275.08
2026-01-10 20:42:23.460,2126.8936170212764,-1843.063829787234,340.40425531914894,4893.32,6274.92
2026-01-10 20:42:23.480,2169.3829787234044,-1843.1702127659576,338.74468085106383,4892.96,6274.76
2026-01-10 20:42:23.500,2211.872340425532,-1843.276595744681,337.0851063829787,4892.6,6274.6
2026-01-10 20:42:23.520,2254.3617021276596,-1843.3829787234042,335.4255319148936,4892.24,6274.44
2026-01-10 20:42:23.540,2296.851063829787,-1843.4893617021276,333.7659574468085,4891.88,6274.28
2026-01-10 20:42:23.560,2339.3404255319147,-1843.595744680851,332.1063829787234,4891.52,6274.12
2026-01-10 20:42:23.580,2381.8297872340427,-1843.7021276595744,330.4468085106383,4891.16,6273.96
2026-01-10 20:42:23.600,2424.31914893617,-1843.8085106382978,328.78723404255317,4890.8,6273.8
2026-01-10 20:42:23.620,2466.808510638298,-1843.9148936170213,327.1276595744681,4890.44,6273.64
2026-01-10 20:42:23.640,2509.297872340426,-1844.0212765957447,325.468085106383,4890.08,6273.48
2026-01-10 20:42:23.660,2551.7872340425533,-1844.127659574468,323.8085106382979,4889.72,6273.32
2026-01-10 20:42:23.680,2594.276595744681,-1844.2340425531916,322.1489361702128,4889.36,6273.16
2026-01-10 20:42:23.700,2636.7659574468084,-1844.340425531915,320.48936170212767,4889.0,6273.0
2026-01-10 20:42:23.720,2679.255319148936,-1844.4468085106382,318.82978723404256,4888.64,6272.84
2026-01-10 20:42:23.740,2721.744680851064,-1844.5531914893618,317.17021276595744,4888.28,6272.68
2026-01-10 20:42:23.760,2764.2340425531916,-1844.659574468085,315.51063829787233,4887.92,6272.52
2026-01-10 20:42:23.780,2806.723404255319,-1844.7659574468084,313.8510638297872,4887.56,6272.36
2026-01-10 20:42:23.800,2849.212765957447,-1844.872340425532,312.1914893617021,4887.2,6272.2
2026-01-10 20:42:23.820,2891.702127659574,-1844.9787234042553,310.531914893617,4886.84,6272.04
2026-01-10 20:42:23.840,2934.191489361702,-1845.0851063829787,308.8723404255319,4886.48,6271.88
2026-01-10 20:42:23.860,2976.68085106383,-1845.1914893617022,307.21276595744683,4886.12,6271.72
2026-01-10 20:42:23.880,3019.1702127659573,-1845.2978723404256,305.5531914893617,4885.76,6271.56
2026-01-10 20:42:23.900,3061.6595744680853,-1845.404255319149,303.8936170212766,4885.4,6271.4
2026-01-10 20:42:23.920,3104.1489361702124,-1845.5106382978724,302.2340425531915,4885.04,6271.24
2026-01-10 20:42:23.940,3146.6382978723404,-1845.6170212765958,300.5744680851064,4884.68,6271.08
2026-01-10 20:42:23.960,3189.127659574468,-1845.723404255319,298.9148936170213,4884.32,6270.92
2026-01-10 20:42:23.980,3231.6170212765956,-1845.8297872340424,297.25531914893617,4883.96,6270.76
2026-01-10 20:42:24.000,3274.1063829787236,-1845.936170212766,295.59574468085106,4883.6,6270.6
2026-01-10 20:42:24.020,3316.595744680851,-1846.0425531914893,293.93617021276594,4883.24,6270.44
2026-01-10 20:42:24.040,3359.0851063829787,-1846.1489361702127,292.27659574468083,4882.88,6270.28
2026-01-10 20:42:24.060,3401.5744680851067,-1846.2553191489362,290.6170212765958,4882.52,6270.12
2026-01-10 20:42:24.080,3444.0638297872338,-1846.3617021276596,288.95744680851067,4882.16,6269.96
2026-01-10 20:42:24.100,3486.553191489362,-1846.468085106383,287.29787234042556,4881.8,6269.8
2026-01-10 20:42:24.120,3529.0425531914893,-1846.5744680851064,285.63829787234044,4881.44,6269.64
2026-01-10 20:42:24.140,3571.531914893617,-1846.6808510638298,283.97872340425533,4881.08,6269.48
2026-01-10 20:42:24.160,3614.021276595745,-1846.787234042553,282.3191489361702,4880.72,6269.32
2026-01-10 20:42:24.180,3656.5106382978724,-1846.8936170212767,280.6595744680851,4880.36,6269.16
2026-01-10 20:42:24.200,3699.0,-1847.0,279.0,4880.0,6269.0
2026-01-10 20:42:24.220,3698.52,-1846.66,279.12,4880.14,6269.06
2026-01-10 20:42:24.240,3698.04,-1846.32,279.24,4880.28,6269.12
2026-01-10 20:42:24.260,3697.56,-1845.98,279.36,4880.42,6269.18
2026-01-10 20:42:24.280,3697.08,-1845.64,279.48,4880.56,6269.24
2026-01-10 20:42:24.300,3696.6,-1845.3,279.6,4880.7,6269.3
2026-01-10 20:42:24.320,3696.12,-1844.96,279.72,4880.84,6269.36
2026-01-10 20:42:24.340,3695.64,-1844.62,279.84,4880.98,6269.42
2026-01-10 20:42:24.360,3695.16,-1844.28,279.96,4881.12,6269.48
2026-01-10 20:42:24.380,3694.68,-1843.94,280.08,4881.26,6269.54
2026-01-10 20:42:24.400,3694.2,-1843.6,280.2,4881.4,6269.6
2026-01-10 20:42:24.420,3693.72,-1843.26,280.32,4881.54,6269.66
2026-01-10 20:42:24.440,3693.24,-1842.92,280.44,4881.68,6269.72
2026-01-10 20:42:24.460,3692.76,-1842.58,280.56,4881.82,6269.78
2026-01-10 20:42:24.480,3692.28,-1842.24,280.68,4881.96,6269.84
2026-01-10 20:42:24.500,3691.8,-1841.9,280.8,4882.1,6269.9
2026-01-10 20:42:24.520,3691.32,-1841.56,280.92,4882.24,6269.96
2026-01-10 20:42:24.540,3690.84,-1841.22,281.04,4882.38,6270.02
2026-01-10 20:42:24.560,3690.36,-1840.88,281.16,4882.52,6270.08
2026-01-10 20:42:24.580,3689.88,-1840.54,281.28,4882.66,6270.14
2026-01-10 20:42:24.600,3689.4,-1840.2,281.4,4882.8,6270.2
2026-01-10 20:42:24.620,3688.92,-1839.86,281.52,4882.94,6270.26
2026-01-10 20:42:24.640,3688.44,-1839.52,281.64,4883.08,6270.32
2026-01-10 20:42:24.660,3687.96,-1839.18,281.76,4883.22,6270.38
2026-01-10 20:42:24.680,3687.48,-1838.84,281.88,4883.36,6270.44
2026-01-10 20:42:24.700,3687.0,-1838.5,282.0,4883.5,6270.5
2026-01-10 20:42:24.720,3686.52,-1838.16,282.12,4883.64,6270.56
2026-01-10 20:42:24.740,3686.04,-1837.82,282.24,4883.78,6270.62
2026-01-10 20:42:24.760,3685.56,-1837.48,282.36,4883.92,6270.68
2026-01-10 20:42:24.780,3685.08,-1837.14,282.48,4884.06,6270.74
2026-01-10 20:42:24.800,3684.6,-1836.8,282.6,4884.2,6270.8
2026-01-10 20:42:24.820,3684.12,-1836.46,282.72,4884.34,6270.86
2026-01-10 20:42:24.840,3683.64,-1836.12,282.84,4884.48,6270.92
2026-01-10 20:42:24.860,3683.16,-1835.78,282.96,4884.62,6270.98
2026-01-10 20:42:24.880,3682.68,-1835.44,283.08,4884.76,6271.04
2026-01-10 20:42:24.900,3682.2,-1835.1,283.2,4884.9,6271.1
2026-01-10 20:42:24.920,3681.72,-1834.76,283.32,4885.04,6271.16
2026-01-10 20:42:24.940,3681.24,-1834.42,283.44,4885.18,6271.22
2026-01-10 20:42:24.960,3680.76,-1834.08,283.56,4885.32,6271.28
2026-01-10 20:42:24.980,3680.28,-1833.74,283.68,4885.46,6271.34
2026-01-10 20:42:25.000,3679.8,-1833.4,283.8,4885.6,6271.4
2026-01-10 20:42:25.020,3679.32,-1833.06,283.92,4885.74,6271.46
2026-01-10 20:42:25.040,3678.84,-1832.72,284.04,4885.88,6271.52
2026-01-10 20:42:25.060,3678.36,-1832.38,284.16,4886.02,6271.58
2026-01-10 20:42:25.080,3677.88,-1832.04,284.28,4886.16,6271.64
2026-01-10 20:42:25.100,3677.4,-1831.7,284.4,4886.3,6271.7
2026-01-10 20:42:25.120,3676.92,-1831.36,284.52,4886.44,6271.76
2026-01-10 20:42:25.140,3676.44,-1831.02,284.64,4886.58,6271.82
2026-01-10 20:42:25.160,3675.96,-1830.68,284.76,4886.72,6271.88
2026-01-10 20:42:25.180,3675.48,-1830.34,284.88,4886.86,6271.94
2026-01-10 20:42:25.200,3675.0,-1830.0,285.0,4887.0,6272.0
2026-01-10 20:42:25.220,3635.9803921568628,-1831.4705882352941,286.05882352941177,4887.16,6272.28
2026-01-10 20:42:25.240,3596.9607843137255,-1832.9411764705883,287.11764705882354,4887.32,6272.56
2026-01-10 20:42:25.260,3557.9411764705883,-1834.4117647058824,288.1764705882353,4887.48,6272.84
2026-01-10 20:42:25.280,3518.921568627451,-1835.8823529411766,289.2352941176471,4887.64,6273.12
2026-01-10 20:42:25.300,3479.901960784314,-1837.3529411764705,290.29411764705884,4887.8,6273.4
2026-01-10 20:42:25.320,3440.8823529411766,-1838.8235294117646,291.3529411764706,4887.96,6273.68
2026-01-10 20:42:25.340,3401.8627450980393,-1840.2941176470588,292.4117647058824,4888.12,6273.96
2026-01-10 20:42:25.360,3362.843137254902,-1841.764705882353,293.47058823529414,4888.28,6274.24
2026-01-10 20:42:25.380,3323.823529411765,-1843.235294117647,294.52941176470586,4888.44,6274.52
2026-01-10 20:42:25.400,3284.8039215686276,-1844.7058823529412,295.5882352941176,4888.6,6274.8
2026-01-10 20:42:25.420,3245.7843137254904,-1846.1764705882354,296.6470588235294,4888.76,6275.08
2026-01-10 20:42:25.440,3206.764705882353,-1847.6470588235295,297.70588235294116,4888.92,6275.36
2026-01-10 20:42:25.460,3167.7450980392155,-1849.1176470588234,298.7647058823529,4889.08,6275.64
2026-01-10 20:42:25.480,3128.725490196078,-1850.5882352941176,299.8235294117647,4889.24,6275.92
2026-01-10 20:42:25.500,3089.705882352941,-1852.0588235294117,300.88235294117646,4889.4,6276.2
2026-01-10 20:42:25.520,3050.6862745098038,-1853.5294117647059,301.94117647058823,4889.56,6276.48
2026-01-10 20:42:25.540,3011.6666666666665,-1855.0,303.0,4889.72,6276.76
2026-01-10 20:42:25.560,2972.6470588235293,-1856.4705882352941,304.05882352941177,4889.88,6277.04
2026-01-10 20:42:25.580,2933.627450980392,-1857.9411764705883,305.11764705882354,4890.04,6277.32
2026-01-10 20:42:25.600,2894.607843137255,-1859.4117647058824,306.1764705882353,4890.2,6277.6
2026-01-10 20:42:25.620,2855.5882352941176,-1860.8823529411766,307.2352941176471,4890.36,6277.88
2026-01-10 20:42:25.640,2816.5686274509803,-1862.3529411764705,308.29411764705884,4890.52,6278.16
2026-01-10 20:42:25.660,2777.549019607843,-1863.8235294117646,309.3529411764706,4890.68,6278.44
2026-01-10 20:42:25.680,2738.529411764706,-1865.2941176470588,310.4117647058824,4890.84,6278.72
2026-01-10 20:42:25.700,2699.5098039215686,-1866.764705882353,311.47058823529414,4891.0,6279.0
2026-01-10 20:42:25.720,2660.4901960784314,-1868.235294117647,312.52941176470586,4891.16,6279.28
2026-01-10 20:42:25.740,2621.4705882352937,-1869.7058823529412,313.5882352941176,4891.32,6279.56
2026-01-10 20:42:25.760,2582.4509803921565,-1871.1764705882354,314.6470588235294,4891.48,6279.84
2026-01-10 20:42:25.780,2543.431372549019,-1872.6470588235295,315.70588235294116,4891.64,6280.12
2026-01-10 20:42:25.800,2504.411764705882,-1874.1176470588234,316.7647058823529,4891.8,6280.4
2026-01-10 20:42:25.820,2465.3921568627447,-1875.5882352941176,317.8235294117647,4891.96,6280.68
2026-01-10 20:42:25.840,2426.3725490196075,-1877.0588235294117,318.88235294117646,4892.12,6280.96
2026-01-10 20:42:25.860,2387.3529411764703,-1878.5294117647059,319.94117647058823,4892.28,6281.24
2026-01-10 20:42:25.880,2348.333333333333,-1880.0,321.0,4892.44,6281.52
2026-01-10 20:42:25.900,2309.313725490196,-1881.4705882352941,322.05882352941177,4892.6,6281.8
2026-01-10 20:42:25.920,2270.2941176470586,-1882.9411764705883,323.11764705882354,4892.76,6282.08
2026-01-10 20:42:25.940,2231.2745098039213,-1884.4117647058824,324.1764705882353,4892.92,6282.36
2026-01-10 20:42:25.960,2192.254901960784,-1885.8823529411766,325.2352941176471,4893.08,6282.64
2026-01-10 20:42:25.980,2153.235294117647,-1887.3529411764705,326.29411764705884,4893.24,6282.92
2026-01-10 20:42:26.000,2114.2156862745096,-1888.8235294117646,327.3529411764706,4893.4,6283.2
2026-01-10 20:42:26.020,2075.1960784313724,-1890.2941176470588,328.4117647058824,4893.56,6283.48
2026-01-10 20:42:26.040,2036.1764705882351,-1891.764705882353,329.47058823529414,4893.72,6283.76
2026-01-10 20:42:26.060,1997.156862745098,-1893.235294117647,330.52941176470586,4893.88,6284.04
2026-01-10 20:42:26.080,1958.1372549019607,-1894.7058823529412,331.5882352941176,4894.04,6284.32
2026-01-10 20:42:26.100,1919.1176470588234,-1896.1764705882354,332.6470588235294,4894.2,6284.6
2026-01-10 20:42:26.120,1880.0980392156862,-1897.6470588235295,333.70588235294116,4894.36,6284.88
2026-01-10 20:42:26.140,1841.078431372549,-1899.1176470588234,334.7647058823529,4894.52,6285.16
2026-01-10 20:42:26.160,1802.0588235294117,-1900.5882352941176,335.8235294117647,4894.68,6285.44
2026-01-10 20:42:26.180,1763.0392156862742,-1902.0588235294117,336.88235294117646,4894.84,6285.72
2026-01-10 20:42:26.200,1724.019607843137,-1903.5294117647059,337.94117647058823,4895.0,6286.0
2026-01-10 20:42:26.220,1685.0,-1905.0,339.0,4895.235294117647,6286.117647058823
2026-01-10 20:42:26.240,1686.08,-1904.8,338.74,4895.470588235294,6286.235294117647
2026-01-10 20:42:26.260,1687.16,-1904.6,338.48,4895.705882352941,6286.35294117647
2026-01-10 20:42:26.280,1688.24,-1904.4,338.22,4895.941176470588,6286.470588235294
2026-01-10 20:42:26.300,1689.32,-1904.2,337.96,4896.176470588235,6286.588235294118
2026-01-10 20:42:26.320,1690.4,-1904.0,337.7,4896.411764705882,6286.705882352941
2026-01-10 20:42:26.340,1691.48,-1903.8,337.44,4896.64705882353,6286.823529411765
2026-01-10 20:42:26.360,1692.56,-1903.6,337.18,4896.882352941177,6286.941176470588
2026-01-10 20:42:26.380,1693.64,-1903.4,336.92,4897.117647058823,6287.058823529412
2026-01-10 20:42:26.400,1694.72,-1903.2,336.66,4897.35294117647,6287.176470588235
2026-01-10 20:42:26.420,1695.8,-1903.0,336.4,4897.588235294118,6287.294117647059
2026-01-10 20:42:26.440,1696.88,-1902.8,336.14,4897.823529411765,6287.411764705882
2026-01-10 20:42:26.460,1697.96,-1902.6,335.88,4898.058823529412,6287.529411764706
2026-01-10 20:42:26.480,1699.04,-1902.4,335.62,4898.294117647059,6287.64705882353
2026-01-10 20:42:26.500,1700.12,-1902.2,335.36,4898.529411764706,6287.764705882353
2026-01-10 20:42:26.520,1701.2,-1902.0,335.1,4898.764705882353,6287.882352941177
2026-01-10 20:42:26.540,1702.28,-1901.8,334.84,4899.0,6288.0
2026-01-10 20:42:26.560,1703.36,-1901.6,334.58,4899.235294117647,6288.117647058823
2026-01-10 20:42:26.580,1704.44,-1901.4,334.32,4899.470588235294,6288.235294117647
2026-01-10 20:42:26.600,1705.52,-1901.2,334.06,4899.705882352941,6288.35294117647
2026-01-10 20:42:26.620,1706.6,-1901.0,333.8,4899.941176470588,6288.470588235294
2026-01-10 20:42:26.640,1707.68,-1900.8,333.54,4900.176470588235,6288.588235294118
2026-01-10 20:42:26.660,1708.76,-1900.6,333.28,4900.411764705882,6288.705882352941
2026-01-10 20:42:26.680,1709.84,-1900.4,333.02,4900.64705882353,6288.823529411765
2026-01-10 20:42:26.700,1710.92,-1900.2,332.76,4900.882352941177,6288.941176470588
2026-01-10 20:42:26.720,1712.0,-1900.0,332.5,4901.117647058823,6289.058823529412
2026-01-10 20:42:26.740,1713.08,-1899.8,332.24,4901.35294117647,6289.176470588235
2026-01-10 20:42:26.760,1714.16,-1899.6,331.98,4901.588235294118,6289.294117647059
2026-01-10 20:42:26.780,1715.24,-1899.4,331.72,4901.823529411765,6289.411764705882
2026-01-10 20:42:26.800,1716.32,-1899.2,331.46,4902.058823529412,6289.529411764706
2026-01-10 20:42:26.820,1717.4,-1899.0,331.2,4902.294117647059,6289.64705882353
2026-01-10 20:42:26.840,1718.48,-1898.8,330.94,4902.529411764706,6289.764705882353
2026-01-10 20:42:26.860,1719.56,-1898.6,330.68,4902.764705882353,6289.882352941177
2026-01-10 20:42:26.880,1720.64,-1898.4,330.42,4903.0,6290.0
2026-01-10 20:42:26.900,1721.72,-1898.2,330.16,4903.235294117647,6290.117647058823
2026-01-10 20:42:26.920,1722.8,-1898.0,329.9,4903.470588235294,6290.235294117647
2026-01-10 20:42:26.940,1723.88,-1897.8,329.64,4903.705882352941,6290.35294117647
2026-01-10 20:42:26.960,1724.96,-1897.6,329.38,4903.941176470588,6290.470588235294
2026-01-10 20:42:26.980,1726.04,-1897.4,329.12,4904.176470588235,6290.588235294118
2026-01-10 20:42:27.000,1727.12,-1897.2,328.86,4904.411764705882,6290.705882352941
2026-01-10 20:42:27.020,1728.2,-1897.0,328.6,4904.64705882353,6290.823529411765
2026-01-10 20:42:27.040,1729.28,-1896.8,328.34,4904.882352941177,6290.941176470588
2026-01-10 20:42:27.060,1730.36,-1896.6,328.08,4905.117647058823,6291.058823529412
2026-01-10 20:42:27.080,1731.44,-1896.4,327.82,4905.35294117647,6291.176470588235
2026-01-10 20:42:27.100,1732.52,-1896.2,327.56,4905.588235294118,6291.294117647059
2026-01-10 20:42:27.120,1733.6,-1896.0,327.3,4905.823529411765,6291.411764705882
2026-01-10 20:42:27.140,1734.68,-1895.8,327.04,4906.058823529412,6291.529411764706
2026-01-10 20:42:27.160,1735.76,-1895.6,326.78,4906.294117647059,6291.64705882353
2026-01-10 20:42:27.180,1736.84,-1895.4,326.52,4906.529411764706,6291.764705882353
2026-01-10 20:42:27.200,1737.92,-1895.2,326.26,4906.764705882353,6291.882352941177
2026-01-10 20:42:27.220,1739.0,-1895.0,326.0,4907.0,6292.0
2026-01-10 20:42:27.240,1781.5,-1894.98,325.06,4907.46,6291.18
2026-01-10 20:42:27.260,1824.0,-1894.96,324.12,4907.92,6290.36
2026-01-10 20:42:27.280,1866.5,-1894.94,323.18,4908.38,6289.54
2026-01-10 20:42:27.300,1909.0,-1894.92,322.24,4908.84,6288.72
2026-01-10 20:42:27.320,1951.5,-1894.9,321.3,4909.3,6287.9
2026-01-10 20:42:27.340,1994.0,-1894.88,320.36,4909.76,6287.08
2026-01-10 20:42:27.360,2036.5,-1894.86,319.42,4910.22,6286.26
2026-01-10 20:42:27.380,2079.0,-1894.84,318.48,4910.68,6285.44
2026-01-10 20:42:27.400,2121.5,-1894.82,317.54,4911.14,6284.62
2026-01-10 20:42:27.420,2164.0,-1894.8,316.6,4911.6,6283.8
2026-01-10 20:42:27.440,2206.5,-1894.78,315.66,4912.06,6282.98
2026-01-10 20:42:27.460,2249.0,-1894.76,314.72,4912.52,6282.16
2026-01-10 20:42:27.480,2291.5,-1894.74,313.78,4912.98,6281.34
2026-01-10 20:42:27.500,2334.0,-1894.72,312.84,4913.44,6280.52
2026-01-10 20:42:27.520,2376.5,-1894.7,311.9,4913.9,6279.7
2026-01-10 20:42:27.540,2419.0,-1894.68,310.96,4914.36,6278.88
2026-01-10 20:42:27.560,2461.5,-1894.66,310.02,4914.82,6278.06
2026-01-10 20:42:27.580,2504.0,-1894.64,309.08,4915.28,6277.24
2026-01-10 20:42:27.600,2546.5,-1894.62,308.14,4915.74,6276.42
2026-01-10 20:42:27.620,2589.0,-1894.6,307.2,4916.2,6275.6
2026-01-10 20:42:27.640,2631.5,-1894.58,306.26,4916.66,6274.78
2026-01-10 20:42:27.660,2674.0,-1894.56,305.32,4917.12,6273.96
2026-01-10 20:42:27.680,2716.5,-1894.54,304.38,4917.58,6273.14
2026-01-10 20:42:27.700,2759.0,-1894.52,303.44,4918.04,6272.32
2026-01-10 20:42:27.720,2801.5,-1894.5,302.5,4918.5,6271.5
2026-01-10 20:42:27.740,2844.0,-1894.48,301.56,4918.96,6270.68
2026-01-10 20:42:27.760,2886.5,-1894.46,300.62,4919.42,6269.86
2026-01-10 20:42:27.780,2929.0,-1894.44,299.68,4919.88,6269.04
2026-01-10 20:42:27.800,2971.5,-1894.42,298.74,4920.34,6268.22
2026-01-10 20:42:27.820,3014.0,-1894.4,297.8,4920.8,6267.4
2026-01-10 20:42:27.840,3056.5,-1894.38,296.86,4921.26,6266.58
2026-01-10 20:42:27.860,3099.0,-1894.36,295.92,4921.72,6265.76
2026-01-10 20:42:27.880,3141.5,-1894.34,294.98,4922.18,6264.94
2026-01-10 20:42:27.900,3184.0,-1894.32,294.04,4922.64,6264.12
2026-01-10 20:42:27.920,3226.5,-1894.3,293.1,4923.1,6263.3
2026-01-10 20:42:27.940,3269.0,-1894.28,292.16,4923.56,6262.48
2026-01-10 20:42:27.960,3311.5,-1894.26,291.22,4924.02,6261.66
2026-01-10 20:42:27.980,3354.0,-1894.24,290.28,4924.48,6260.84
2026-01-10 20:42:28.000,3396.5,-1894.22,289.34000000000003,4924.94,6260.02
2026-01-10 20:42:28.020,3439.0,-1894.2,288.4,4925.4,6259.2
2026-01-10 20:42:28.040,3481.5,-1894.18,287.46,4925.86,6258.38
2026-01-10 20:42:28.060,3524.0,-1894.16,286.52,4926.32,6257.56
2026-01-10 20:42:28.080,3566.5,-1894.14,285.58,4926.78,6256.74
2026-01-10 20:42:28.100,3609.0,-1894.12,284.64,4927.24,6255.92
2026-01-10 20:42:28.120,3651.5,-1894.1,283.7,4927.7,6255.1
2026-01-10 20:42:28.140,3694.0,-1894.08,282.76,4928.16,6254.28
2026-01-10 20:42:28.160,3736.5,-1894.06,281.82,4928.62,6253.46
2026-01-10 20:42:28.180,3779.0,-1894.04,280.88,4929.08,6252.64
2026-01-10 20:42:28.200,3821.5,-1894.02,279.94,4929.54,6251.82
2026-01-10 20:42:28.220,3864.0,-1894.0,279.0,4930.0,6251.0
2026-01-10 20:42:28.240,3820.02,-1894.04,279.04,4930.04,6251.469387755102
2026-01-10 20:42:28.260,3776.04,-1894.08,279.08,4930.08,6251.938775510204
2026-01-10 20:42:28.280,3732.06,-1894.12,279.12,4930.12,6252.408163265306
2026-01-10 20:42:28.300,3688.08,-1894.16,279.16,4930.16,6252.877551020408
2026-01-10 20:42:28.320,3644.1,-1894.2,279.2,4930.2,6253.34693877551
2026-01-10 20:42:28.340,3600.12,-1894.24,279.24,4930.24,6253.816326530612
2026-01-10 20:42:28.360,3556.14,-1894.28,279.28,4930.28,6254.285714285715
2026-01-10 20:42:28.380,3512.16,-1894.32,279.32,4930.32,6254.755102040816
2026-01-10 20:42:28.400,3468.18,-1894.36,279.36,4930.36,6255.224489795918
2026-01-10 20:42:28.420,3424.2,-1894.4,279.4,4930.4,6255.693877551021
2026-01-10 20:42:28.440,3380.2200000000003,-1894.44,279.44,4930.44,6256.163265306122
2026-01-10 20:42:28.460,3336.24,-1894.48,279.48,4930.48,6256.632653061224
2026-01-10 20:42:28.480,3292.26,-1894.52,279.52,4930.52,6257.102040816327
2026-01-10 20:42:28.500,3248.28,-1894.56,279.56,4930.56,6257.571428571428
2026-01-10 20:42:28.520,3204.3,-1894.6,279.6,4930.6,6258.040816326531
2026-01-10 20:42:28.540,3160.32,-1894.64,279.64,4930.64,6258.510204081633
2026-01-10 20:42:28.560,3116.34,-1894.68,279.68,4930.68,6258.9795918367345
2026-01-10 20:42:28.580,3072.36,-1894.72,279.72,4930.72,6259.448979591837
2026-01-10 20:42:28.600,3028.38,-1894.76,279.76,4930.76,6259.918367346939
2026-01-10 20:42:28.620,2984.4,-1894.8,279.8,4930.8,6260.3877551020405
2026-01-10 20:42:28.640,2940.42,-1894.84,279.84,4930.84,6260.857142857143
2026-01-10 20:42:28.660,2896.44,-1894.88,279.88,4930.88,6261.326530612245
2026-01-10 20:42:28.680,2852.46,-1894.92,279.92,4930.92,6261.7959183673465
2026-01-10 20:42:28.700,2808.48,-1894.96,279.96,4930.96,6262.265306122449
2026-01-10 20:42:28.720,2764.5,-1895.0,280.0,4931.0,6262.734693877551
2026-01-10 20:42:28.740,2720.52,-1895.04,280.04,4931.04,6263.2040816326535
2026-01-10 20:42:28.760,2676.54,-1895.08,280.08,4931.08,6263.673469387755
2026-01-10 20:42:28.780,2632.5600000000004,-1895.12,280.12,4931.12,6264.142857142857
2026-01-10 20:42:28.800,2588.58,-1895.16,280.16,4931.16,6264.6122448979595
2026-01-10 20:42:28.820,2544.6000000000004,-1895.2,280.2,4931.2,6265.081632653061
2026-01-10 20:42:28.840,2500.62,-1895.24,280.24,4931.24,6265.551020408163
2026-01-10 20:42:28.860,2456.6400000000003,-1895.28,280.28,4931.28,6266.0204081632655
2026-01-10 20:42:28.880,2412.66,-1895.32,280.32,4931.32,6266.489795918367
2026-01-10 20:42:28.900,2368.6800000000003,-1895.36,280.36,4931.36,6266.959183673469
2026-01-10 20:42:28.920,2324.7,-1895.4,280.4,4931.4,6267.428571428572
2026-01-10 20:42:28.940,2280.7200000000003,-1895.44,280.44,4931.44,6267.897959183673
2026-01-10 20:42:28.960,2236.74,-1895.48,280.48,4931.48,6268.367346938776
2026-01-10 20:42:28.980,2192.76,-1895.52,280.52,4931.52,6268.836734693878
2026-01-10 20:42:29.000,2148.78,-1895.56,280.56,4931.56,6269.306122448979
2026-01-10 20:42:29.020,2104.8,-1895.6,280.6,4931.6,6269.775510204082
2026-01-10 20:42:29.040,2060.82,-1895.64,280.64,4931.64,6270.244897959184
2026-01-10 20:42:29.060,2016.8400000000001,-1895.68,280.68,4931.68,6270.714285714285
2026-01-10 20:42:29.080,1972.8600000000001,-1895.72,280.72,4931.72,6271.183673469388
2026-01-10 20:42:29.100,1928.88,-1895.76,280.76,4931.76,6271.65306122449
2026-01-10 20:42:29.120,1884.9,-1895.8,280.8,4931.8,6272.122448979592
2026-01-10 20:42:29.140,1840.92,-1895.84,280.84,4931.84,6272.591836734694
2026-01-10 20:42:29.160,1796.94,-1895.88,280.88,4931.88,6273.061224489796
2026-01-10 20:42:29.180,1752.96,-1895.92,280.92,4931.92,6273.530612244898
2026-01-10 20:42:29.200,1708.98,-1895.96,280.96,4931.96,6274.0
2026-01-10 20:42:29.220,1665.0,-1896.0,281.0,4932.0,6274.470588235294
2026-01-10 20:42:29.240,1704.54,-1852.82,282.52,4931.96,6274.941176470588
2026-01-10 20:42:29.260,1744.08,-1809.64,284.04,4931.92,6275.411764705882
2026-01-10 20:42:29.280,1783.62,-1766.46,285.56,4931.88,6275.882352941177
2026-01-10 20:42:29.300,1823.16,-1723.28,287.08,4931.84,6276.35294117647
2026-01-10 20:42:29.320,1862.7,-1680.1,288.6,4931.8,6276.823529411765
2026-01-10 20:42:29.340,1902.24,-1636.92,290.12,4931.76,6277.294117647059
2026-01-10 20:42:29.360,1941.78,-1593.74,291.64,4931.72,6277.764705882353
2026-01-10 20:42:29.380,1981.32,-1550.56,293.16,4931.68,6278.235294117647
2026-01-10 20:42:29.400,2020.8600000000001,-1507.38,294.68,4931.64,6278.705882352941
2026-01-10 20:42:29.420,2060.4,-1464.2,296.2,4931.6,6279.176470588235
2026-01-10 20:42:29.440,2099.94,-1421.02,297.72,4931.56,6279.64705882353
2026-01-10 20:42:29.460,2139.48,-1377.8400000000001,299.24,4931.52,6280.117647058823
2026-01-10 20:42:29.480,2179.02,-1334.6599999999999,300.76,4931.48,6280.588235294118
2026-01-10 20:42:29.500,2218.56,-1291.48,302.28,4931.44,6281.058823529412
2026-01-10 20:42:29.520,2258.1,-1248.3,303.8,4931.4,6281.529411764706
2026-01-10 20:42:29.540,2297.64,-1205.12,305.32,4931.36,6282.0
2026-01-10 20:42:29.560,2337.18,-1161.94,306.84,4931.32,6282.470588235294
2026-01-10 20:42:29.580,2376.7200000000003,-1118.76,308.36,4931.28,6282.941176470588
2026-01-10 20:42:29.600,2416.26,-1075.58,309.88,4931.24,6283.411764705882
2026-01-10 20:42:29.620,2455.8,-1032.4,311.4,4931.2,6283.882352941177
2026-01-10 20:42:29.640,2495.34,-989.22,312.92,4931.16,6284.35294117647
2026-01-10 20:42:29.660,2534.88,-946.04,314.44,4931.12,6284.823529411765
2026-01-10 20:42:29.680,2574.42,-902.86,315.96,4931.08,6285.294117647059
2026-01-10 20:42:29.700,2613.96,-859.6800000000001,317.48,4931.04,6285.764705882353
2026-01-10 20:42:29.720,2653.5,-816.5,319.0,4931.0,6286.235294117647
2026-01-10 20:42:29.740,2693.04,-773.3199999999999,320.52,4930.96,6286.705882352941
2026-01-10 20:42:29.760,2732.58,-730.1400000000001,322.04,4930.92,6287.176470588235
2026-01-10 20:42:29.780,2772.12,-686.96,323.56,4930.88,6287.64705882353
2026-01-10 20:42:29.800,2811.66,-643.78,325.08,4930.84,6288.117647058823
2026-01-10 20:42:29.820,2851.2,-600.5999999999999,326.6,4930.8,6288.588235294118
2026-01-10 20:42:29.840,2890.74,-557.4200000000001,328.12,4930.76,6289.058823529412
2026-01-10 20:42:29.860,2930.2799999999997,-514.24,329.64,4930.72,6289.529411764706
2026-01-10 20:42:29.880,2969.8199999999997,-471.05999999999995,331.16,4930.68,6290.0
2026-01-10 20:42:29.900,3009.3599999999997,-427.8800000000001,332.68,4930.64,6290.470588235294
2026-01-10 20:42:29.920,3048.8999999999996,-384.70000000000005,334.2,4930.6,6290.941176470588
2026-01-10 20:42:29.940,3088.44,-341.52,335.72,4930.56,6291.411764705882
2026-01-10 20:42:29.960,3127.98,-298.3399999999999,337.24,4930.52,6291.882352941177
2026-01-10 20:42:29.980,3167.52,-255.16000000000008,338.76,4930.48,6292.35294117647
2026-01-10 20:42:30.000,3207.06,-211.98000000000002,340.28,4930.44,6292.823529411765
2026-01-10 20:42:30.020,3246.6,-168.79999999999995,341.8,4930.4,6293.294117647059
2026-01-10 20:42:30.040,3286.14,-125.62000000000012,343.32,4930.36,6293.764705882353
2026-01-10 20:42:30.060,3325.6800000000003,-82.44000000000005,344.84000000000003,4930.32,6294.235294117647
2026-01-10 20:42:30.080,3365.2200000000003,-39.25999999999999,346.36,4930.28,6294.705882352941
2026-01-10 20:42:30.100,3404.76,3.9200000000000728,347.88,4930.24,6295.176470588235
2026-01-10 20:42:30.120,3444.3,47.09999999999991,349.4,4930.2,6295.64705882353
2026-01-10 20:42:30.140,3483.84,90.27999999999997,350.92,4930.16,6296.117647058823
2026-01-10 20:42:30.160,3523.38,133.46000000000004,352.44,4930.12,6296.588235294118
2026-01-10 20:42:30.180,3562.92,176.63999999999987,353.96000000000004,4930.08,6297.058823529412
2026-01-10 20:42:30.200,3602.46,219.82000000000016,355.48,4930.04,6297.529411764706
2026-01-10 20:42:30.220,3642.0,263.0,357.0,4930.0,6298.0
2026-01-10 20:42:30.240,3604.75,222.1730769230769,318.21153846153845,4930.096153846154,6297.942307692308
2026-01-10 20:42:30.260,3567.5,181.34615384615384,279.4230769230769,4930.192307692308,6297.884615384615
2026-01-10 20:42:30.280,3530.25,140.51923076923077,240.6346153846154,4930.288461538462,6297.826923076923
2026-01-10 20:42:30.300,3493.0,99.69230769230768,201.84615384615384,4930.384615384615,6297.7692307692305
2026-01-10 20:42:30.320,3455.75,58.865384615384585,163.0576923076923,4930.4807692307695,6297.711538461538
2026-01-10 20:42:30.340,3418.5,18.03846153846152,124.26923076923077,4930.576923076923,6297.653846153846
2026-01-10 20:42:30.360,3381.25,-22.788461538461547,85.48076923076923,4930.673076923077,6297.596153846154
2026-01-10 20:42:30.380,3344.0,-63.61538461538464,46.69230769230768,4930.7692307692305,6297.538461538462
2026-01-10 20:42:30.400,3306.75,-104.44230769230774,7.903846153846132,4930.865384615385,6297.4807692307695
2026-01-10 20:42:30.420,3269.5,-145.26923076923083,-30.884615384615415,4930.961538461538,6297.423076923077
2026-01-10 20:42:30.440,3232.25,-186.09615384615387,-69.67307692307696,4931.057692307692,6297.365384615385
2026-01-10 20:42:30.460,3195.0,-226.92307692307696,-108.46153846153845,4931.153846153846,6297.307692307692
2026-01-10 20:42:30.480,3157.75,-267.75,-147.25,4931.25,6297.25
2026-01-10 20:42:30.500,3120.5,-308.5769230769231,-186.03846153846155,4931.346153846154,6297.192307692308
2026-01-10 20:42:30.520,3083.25,-349.4038461538462,-224.8269230769231,4931.442307692308,6297.134615384615
2026-01-10 20:42:30.540,3046.0,-390.2307692307693,-263.61538461538464,4931.538461538462,6297.076923076923
2026-01-10 20:42:30.560,3008.75,-431.0576923076924,-302.4038461538462,4931.634615384615,6297.0192307692305
2026-01-10 20:42:30.580,2971.5,-471.8846153846155,-341.19230769230774,4931.7307692307695,6296.961538461538
2026-01-10 20:42:30.600,2934.25,-512.7115384615386,-379.9807692307693,4931.826923076923,6296.903846153846
2026-01-10 20:42:30.620,2897.0,-553.5384615384617,-418.76923076923083,4931.923076923077,6296.846153846154
2026-01-10 20:42:30.640,2859.75,-594.3653846153846,-457.5576923076924,4932.0192307692305,6296.788461538462
2026-01-10 20:42:30.660,2822.5,-635.1923076923077,-496.3461538461539,4932.115384615385,6296.7307692307695
2026-01-10 20:42:30.680,2785.25,-676.0192307692308,-535.1346153846155,4932.211538461538,6296.673076923077
2026-01-10 20:42:30.700,2748.0,-716.8461538461539,-573.9230769230769,4932.307692307692,6296.615384615385
2026-01-10 20:42:30.720,2710.75,-757.673076923077,-612.7115384615385,4932.403846153846,6296.557692307692
2026-01-10 20:42:30.740,2673.5,-798.5,-651.5,4932.5,6296.5
2026-01-10 20:42:30.760,2636.25,-839.3269230769231,-690.2884615384617,4932.596153846154,6296.442307692308
2026-01-10 20:42:30.780,2599.0,-880.1538461538462,-729.0769230769231,4932.692307692308,6296.384615384615
2026-01-10 20:42:30.800,2561.75,-920.9807692307693,-767.8653846153848,4932.788461538462,6296.326923076923
2026-01-10 20:42:30.820,2524.5,-961.8076923076924,-806.6538461538462,4932.884615384615,6296.2692307692305
2026-01-10 20:42:30.840,2487.25,-1002.6346153846155,-845.4423076923078,4932.9807692307695,6296.211538461538
2026-01-10 20:42:30.860,2450.0,-1043.4615384615386,-884.2307692307693,4933.076923076923,6296.153846153846
2026-01-10 20:42:30.880,2412.75,-1084.2884615384617,-923.0192307692307,4933.173076923077,6296.096153846154
2026-01-10 20:42:30.900,2375.5,-1125.1153846153848,-961.8076923076924,4933.2692307692305,6296.038461538462
2026-01-10 20:42:30.920,2338.25,-1165.9423076923078,-1000.5961538461538,4933.365384615385,6295.9807692307695
2026-01-10 20:42:30.940,2301.0,-1206.769230769231,-1039.3846153846155,4933.461538461538,6295.923076923077
2026-01-10 20:42:30.960,2263.75,-1247.596153846154,-1078.173076923077,4933.557692307692,6295.865384615385
2026-01-10 20:42:30.980,2226.5,-1288.4230769230771,-1116.9615384615386,4933.653846153846,6295.807692307692
2026-01-10 20:42:31.000,2189.25,-1329.2500000000002,-1155.75,4933.75,6295.75
2026-01-10 20:42:31.020,2152.0,-1370.0769230769233,-1194.5384615384617,4933.846153846154,6295.692307692308
2026-01-10 20:42:31.040,2114.75,-1410.9038461538462,-1233.326923076923,4933.942307692308,6295.634615384615
2026-01-10 20:42:31.060,2077.5,-1451.7307692307693,-1272.1153846153848,4934.038461538462,6295.576923076923
2026-01-10 20:42:31.080,2040.25,-1492.5576923076924,-1310.9038461538462,4934.134615384615,6295.5192307692305
2026-01-10 20:42:31.100,2003.0,-1533.3846153846155,-1349.6923076923078,4934.2307692307695,6295.461538461538
2026-01-10 20:42:31.120,1965.75,-1574.2115384615386,-1388.4807692307693,4934.326923076923,6295.403846153846
2026-01-10 20:42:31.140,1928.5,-1615.0384615384617,-1427.269230769231,4934.423076923077,6295.346153846154
2026-01-10 20:42:31.160,1891.25,-1655.8653846153848,-1466.0576923076924,4934.5192307692305,6295.288461538462
2026-01-10 20:42:31.180,1854.0,-1696.6923076923078,-1504.8461538461538,4934.615384615385,6295.2307692307695
2026-01-10 20:42:31.200,1816.75,-1737.519230769231,-1543.6346153846155,4934.711538461538,6295.173076923077
2026-01-10 20:42:31.220,1779.5,-1778.346153846154,-1582.423076923077,4934.807692307692,6295.115384615385
2026-01-10 20:42:31.240,1742.25,-1819.1730769230771,-1621.2115384615386,4934.903846153846,6295.057692307692
2026-01-10 20:42:31.260,1705.0,-1860.0,-1660.0,4935.0,6295.0
2026-01-10 20:42:31.280,1704.2708333333333,-1860.8541666666667,-1619.75,4934.645833333333,6294.75
2026-01-10 20:42:31.300,1703.5416666666667,-1861.7083333333333,-1579.5,4934.291666666667,6294.5
2026-01-10 20:42:31.320,1702.8125,-1862.5625,-1539.25,4933.9375,6294.25
2026-01-10 20:42:31.340,1702.0833333333333,-1863.4166666666667,-1499.0,4933.583333333333,6294.0
2026-01-10 20:42:31.360,1701.3541666666667,-1864.2708333333333,-1458.75,4933.229166666667,6293.75
2026-01-10 20:42:31.380,1700.625,-1865.125,-1418.5,4932.875,6293.5
2026-01-10 20:42:31.400,1699.8958333333333,-1865.9791666666667,-1378.25,4932.520833333333,6293.25
2026-01-10 20:42:31.420,1699.1666666666667,-1866.8333333333333,-1338.0,4932.166666666667,6293.0
2026-01-10 20:42:31.440,1698.4375,-1867.6875,-1297.75,4931.8125,6292.75
2026-01-10 20:42:31.460,1697.7083333333333,-1868.5416666666667,-1257.5,4931.458333333333,6292.5
2026-01-10 20:42:31.480,1696.9791666666667,-1869.3958333333333,-1217.25,4931.104166666667,6292.25
2026-01-10 20:42:31.500,1696.25,-1870.25,-1177.0,4930.75,6292.0
2026-01-10 20:42:31.520,1695.5208333333333,-1871.1041666666667,-1136.75,4930.395833333333,6291.75
2026-01-10 20:42:31.540,1694.7916666666667,-1871.9583333333333,-1096.5,4930.041666666667,6291.5
2026-01-10 20:42:31.560,1694.0625,-1872.8125,-1056.25,4929.6875,6291.25
2026-01-10 20:42:31.580,1693.3333333333333,-1873.6666666666667,-1016.0,4929.333333333333,6291.0
2026-01-10 20:42:31.600,1692.6041666666667,-1874.5208333333333,-975.75,4928.979166666667,6290.75
2026-01-10 20:42:31.620,1691.875,-1875.375,-935.5,4928.625,6290.5
2026-01-10 20:42:31.640,1691.1458333333333,-1876.2291666666667,-895.25,4928.270833333333,6290.25
2026-01-10 20:42:31.660,1690.4166666666667,-1877.0833333333333,-855.0,4927.916666666667,6290.0
2026-01-10 20:42:31.680,1689.6875,-1877.9375,-814.75,4927.5625,6289.75
2026-01-10 20:42:31.700,1688.9583333333333,-1878.7916666666667,-774.5,4927.208333333333,6289.5
2026-01-10 20:42:31.720,1688.2291666666667,-1879.6458333333333,-734.25,4926.854166666667,6289.25
2026-01-10 20:42:31.740,1687.5,-1880.5,-694.0,4926.5,6289.0
2026-01-10 20:42:31.760,1686.7708333333333,-1881.3541666666667,-653.75,4926.145833333333,6288.75
2026-01-10 20:42:31.780,1686.0416666666667,-1882.2083333333333,-613.5,4925.791666666667,6288.5
2026-01-10 20:42:31.800,1685.3125,-1883.0625,-573.25,4925.4375,6288.25
2026-01-10 20:42:31.820,1684.5833333333333,-1883.9166666666667,-533.0,4925.083333333333,6288.0
2026-01-10 20:42:31.840,1683.8541666666667,-1884.7708333333333,-492.75,4924.729166666667,6287.75
2026-01-10 20:42:31.860,1683.125,-1885.625,-452.5,4924.375,6287.5
2026-01-10 20:42:31.880,1682.3958333333333,-1886.4791666666667,-412.25,4924.020833333333,6287.25
2026-01-10 20:42:31.900,1681.6666666666667,-1887.3333333333333,-372.0,4923.666666666667,6287.0
2026-01-10 20:42:31.920,1680.9375,-1888.1875,-331.75,4923.3125,6286.75
2026-01-10 20:42:31.940,1680.2083333333333,-1889.0416666666667,-291.5,4922.958333333333,6286.5
2026-01-10 20:42:31.960,1679.4791666666667,-1889.8958333333333,-251.25,4922.604166666667,6286.25
2026-01-10 20:42:31.980,1678.75,-1890.75,-211.0,4922.25,6286.0
2026-01-10 20:42:32.000,1678.0208333333333,-1891.6041666666667,-170.75,4921.895833333333,6285.75
2026-01-10 20:42:32.020,1677.2916666666667,-1892.4583333333333,-130.5,4921.541666666667,6285.5
2026-01-10 20:42:32.040,1676.5625,-1893.3125,-90.25,4921.1875,6285.25
2026-01-10 20:42:32.060,1675.8333333333333,-1894.1666666666667,-50.0,4920.833333333333,6285.0
2026-01-10 20:42:32.080,1675.1041666666667,-1895.0208333333333,-9.75,4920.479166666667,6284.75
2026-01-10 20:42:32.100,1674.375,-1895.875,30.5,4920.125,6284.5
2026-01-10 20:42:32.120,1673.6458333333333,-1896.7291666666667,70.75,4919.770833333333,6284.25
2026-01-10 20:42:32.140,1672.9166666666667,-1897.5833333333333,111.0,4919.416666666667,6284.0
2026-01-10 20:42:32.160,1672.1875,-1898.4375,151.25,4919.0625,6283.75
2026-01-10 20:42:32.180,1671.4583333333333,-1899.2916666666667,191.5,4918.708333333333,6283.5
2026-01-10 20:42:32.200,1670.7291666666667,-1900.1458333333333,231.75,4918.354166666667,6283.25
2026-01-10 20:42:32.220,1670.0,-1901.0,272.0,4918.0,6283.0
2026-01-10 20:42:32.240,1703.2833333333333,-1899.9666666666667,272.21666666666664,4918.266666666666,6282.87037037037
2026-01-10 20:42:32.260,1736.5666666666666,-1898.9333333333334,272.43333333333334,4918.533333333334,6282.740740740741
2026-01-10 20:42:32.280,1769.85,-1897.9,272.65,4918.8,6282.611111111111
2026-01-10 20:42:32.300,1803.1333333333332,-1896.8666666666666,272.8666666666667,4919.066666666667,6282.481481481482
2026-01-10 20:42:32.320,1836.4166666666667,-1895.8333333333333,273.0833333333333,4919.333333333333,6282.351851851852
2026-01-10 20:42:32.340,1869.7,-1894.8,273.3,4919.6,6282.222222222223
2026-01-10 20:42:32.360,1902.9833333333333,-1893.7666666666667,273.51666666666665,4919.866666666667,6282.092592592592
2026-01-10 20:42:32.380,1936.2666666666667,-1892.7333333333333,273.73333333333335,4920.133333333333,6281.962962962963
2026-01-10 20:42:32.400,1969.55,-1891.7,273.95,4920.4,6281.833333333333
2026-01-10 20:42:32.420,2002.8333333333333,-1890.6666666666667,274.1666666666667,4920.666666666667,6281.7037037037035
2026-01-10 20:42:32.440,2036.1166666666668,-1889.6333333333334,274.3833333333333,4920.933333333333,6281.574074074074
2026-01-10 20:42:32.460,2069.4,-1888.6,274.6,4921.2,6281.444444444444
2026-01-10 20:42:32.480,2102.6833333333334,-1887.5666666666666,274.81666666666666,4921.466666666666,6281.314814814815
2026-01-10 20:42:32.500,2135.9666666666667,-1886.5333333333333,275.03333333333336,4921.733333333334,6281.185185185185
2026-01-10 20:42:32.520,2169.25,-1885.5,275.25,4922.0,6281.055555555556
2026-01-10 20:42:32.540,2202.5333333333333,-1884.4666666666667,275.46666666666664,4922.266666666666,6280.925925925926
2026-01-10 20:42:32.560,2235.8166666666666,-1883.4333333333334,275.68333333333334,4922.533333333334,6280.7962962962965
2026-01-10 20:42:32.580,2269.1,-1882.4,275.9,4922.8,6280.666666666667
2026-01-10 20:42:32.600,2302.383333333333,-1881.3666666666666,276.1166666666667,4923.066666666667,6280.537037037037
2026-01-10 20:42:32.620,2335.6666666666665,-1880.3333333333333,276.3333333333333,4923.333333333333,6280.407407407408
2026-01-10 20:42:32.640,2368.95,-1879.3,276.55,4923.6,6280.277777777777
2026-01-10 20:42:32.660,2402.2333333333336,-1878.2666666666667,276.76666666666665,4923.866666666667,6280.148148148148
2026-01-10 20:42:32.680,2435.5166666666664,-1877.2333333333333,276.98333333333335,4924.133333333333,6280.018518518518
2026-01-10 20:42:32.700,2468.8,-1876.2,277.2,4924.4,6279.888888888889
2026-01-10 20:42:32.720,2502.083333333333,-1875.1666666666667,277.4166666666667,4924.666666666667,6279.759259259259
2026-01-10 20:42:32.740,2535.366666666667,-1874.1333333333334,277.6333333333333,4924.933333333333,6279.62962962963
2026-01-10 20:42:32.760,2568.65,-1873.1,277.85,4925.2,6279.5
2026-01-10 20:42:32.780,2601.9333333333334,-1872.0666666666666,278.06666666666666,4925.466666666666,6279.37037037037
2026-01-10 20:42:32.800,2635.2166666666667,-1871.0333333333333,278.28333333333336,4925.733333333334,6279.240740740741
2026-01-10 20:42:32.820,2668.5,-1870.0,278.5,4926.0,6279.111111111111
2026-01-10 20:42:32.840,2701.7833333333333,-1868.9666666666667,278.71666666666664,4926.266666666666,6278.981481481482
2026-01-10 20:42:32.860,2735.0666666666666,-1867.9333333333334,278.93333333333334,4926.533333333334,6278.851851851852
2026-01-10 20:42:32.880,2768.35,-1866.9,279.15,4926.8,6278.722222222223
2026-01-10 20:42:32.900,2801.633333333333,-1865.8666666666666,279.3666666666667,4927.066666666667,6278.592592592592
2026-01-10 20:42:32.920,2834.9166666666665,-1864.8333333333333,279.5833333333333,4927.333333333333,6278.462962962963
2026-01-10 20:42:32.940,2868.2,-1863.8,279.8,4927.6,6278.333333333333
2026-01-10 20:42:32.960,2901.4833333333336,-1862.7666666666667,280.01666666666665,4927.866666666667,6278.2037037037035
2026-01-10 20:42:32.980,2934.7666666666664,-1861.7333333333333,280.23333333333335,4928.133333333333,6278.074074074074
2026-01-10 20:42:33.000,2968.05,-1860.7,280.45,4928.4,6277.944444444444
2026-01-10 20:42:33.020,3001.333333333333,-1859.6666666666667,280.6666666666667,4928.666666666667,6277.814814814815
2026-01-10 20:42:33.040,3034.616666666667,-1858.6333333333332,280.8833333333333,4928.933333333333,6277.685185185185
2026-01-10 20:42:33.060,3067.8999999999996,-1857.6,281.1,4929.2,6277.555555555556
2026-01-10 20:42:33.080,3101.1833333333334,-1856.5666666666666,281.31666666666666,4929.466666666666,6277.425925925926
2026-01-10 20:42:33.100,3134.4666666666667,-1855.5333333333333,281.53333333333336,4929.733333333334,6277.2962962962965
2026-01-10 20:42:33.120,3167.75,-1854.5,281.75,4930.0,6277.166666666667
2026-01-10 20:42:33.140,3201.0333333333333,-1853.4666666666667,281.96666666666664,4930.266666666666,6277.037037037037
2026-01-10 20:42:33.160,3234.3166666666666,-1852.4333333333334,282.18333333333334,4930.533333333334,6276.907407407408
2026-01-10 20:42:33.180,3267.6,-1851.4,282.4,4930.8,6276.777777777777
2026-01-10 20:42:33.200,3300.883333333333,-1850.3666666666666,282.6166666666667,4931.066666666667,6276.648148148148
2026-01-10 20:42:33.220,3334.1666666666665,-1849.3333333333333,282.8333333333333,4931.333333333333,6276.518518518518
2026-01-10 20:42:33.240,3367.45,-1848.3,283.05,4931.6,6276.388888888889
2026-01-10 20:42:33.260,3400.733333333333,-1847.2666666666667,283.26666666666665,4931.866666666667,6276.259259259259
2026-01-10 20:42:33.280,3434.0166666666664,-1846.2333333333333,283.48333333333335,4932.133333333333,6276.12962962963
2026-01-10 20:42:33.300,3467.3,-1845.2,283.7,4932.4,6276.0
2026-01-10 20:42:33.320,3500.583333333333,-1844.1666666666667,283.9166666666667,4932.666666666667,6275.958333333333
2026-01-10 20:42:33.340,3533.866666666667,-1843.1333333333332,284.1333333333333,4932.933333333333,6275.916666666667
2026-01-10 20:42:33.360,3567.1499999999996,-1842.1,284.35,4933.2,6275.875
2026-01-10 20:42:33.380,3600.4333333333334,-1841.0666666666666,284.56666666666666,4933.466666666666,6275.833333333333
2026-01-10 20:42:33.400,3633.7166666666662,-1840.0333333333333,284.78333333333336,4933.733333333334,6275.791666666667
2026-01-10 20:42:33.420,3667.0,-1839.0,285.0,4934.0,6275.75
2026-01-10 20:42:33.440,3620.0714285714284,-1793.547619047619,286.2142857142857,4934.0,6275.708333333333
2026-01-10 20:42:33.460,3573.1428571428573,-1748.095238095238,287.42857142857144,4934.0,6275.666666666667
2026-01-10 20:42:33.480,3526.214285714286,-1702.642857142857,288.64285714285717,4934.0,6275.625
2026-01-10 20:42:33.500,3479.285714285714,-1657.1904761904761,289.85714285714283,4934.0,6275.583333333333
2026-01-10 20:42:33.520,3432.3571428571427,-1611.7380952380952,291.07142857142856,4934.0,6275.541666666667
2026-01-10 20:42:33.540,3385.4285714285716,-1566.2857142857142,292.2857142857143,4934.0,6275.5
2026-01-10 20:42:33.560,3338.5,-1520.8333333333335,293.5,4934.0,6275.458333333333
2026-01-10 20:42:33.580,3291.5714285714284,-1475.3809523809523,294.7142857142857,4934.0,6275.416666666667
2026-01-10 20:42:33.600,3244.642857142857,-1429.9285714285716,295.92857142857144,4934.0,6275.375
2026-01-10 20:42:33.620,3197.714285714286,-1384.4761904761904,297.14285714285717,4934.0,6275.333333333333
2026-01-10 20:42:33.640,3150.785714285714,-1339.0238095238096,298.35714285714283,4934.0,6275.291666666667
2026-01-10 20:42:33.660,3103.857142857143,-1293.5714285714287,299.57142857142856,4934.0,6275.25
2026-01-10 20:42:33.680,3056.9285714285716,-1248.1190476190477,300.7857142857143,4934.0,6275.208333333333
2026-01-10 20:42:33.700,3010.0,-1202.6666666666667,302.0,4934.0,6275.166666666667
2026-01-10 20:42:33.720,2963.0714285714284,-1157.2142857142858,303.2142857142857,4934.0,6275.125
2026-01-10 20:42:33.740,2916.142857142857,-1111.7619047619048,304.42857142857144,4934.0,6275.083333333333
2026-01-10 20:42:33.760,2869.214285714286,-1066.3095238095239,305.64285714285717,4934.0,6275.041666666667
2026-01-10 20:42:33.780,2822.285714285714,-1020.8571428571429,306.85714285714283,4934.0,6275.0
2026-01-10 20:42:33.800,2775.3571428571427,-975.4047619047619,308.07142857142856,4934.0,6274.958333333333
2026-01-10 20:42:33.820,2728.4285714285716,-929.952380952381,309.2857142857143,4934.0,6274.916666666667
2026-01-10 20:42:33.840,2681.5,-884.5000000000001,310.5,4934.0,6274.875
2026-01-10 20:42:33.860,2634.5714285714284,-839.0476190476192,311.7142857142857,4934.0,6274.833333333333
2026-01-10 20:42:33.880,2587.642857142857,-793.5952380952381,312.92857142857144,4934.0,6274.791666666667
2026-01-10 20:42:33.900,2540.714285714286,-748.1428571428573,314.1428571428571,4934.0,6274.75
2026-01-10 20:42:33.920,2493.785714285714,-702.6904761904764,315.35714285714283,4934.0,6274.708333333333
2026-01-10 20:42:33.940,2446.857142857143,-657.2380952380954,316.57142857142856,4934.0,6274.666666666667
2026-01-10 20:42:33.960,2399.9285714285716,-611.7857142857144,317.7857142857143,4934.0,6274.625
2026-01-10 20:42:33.980,2353.0,-566.3333333333335,319.0,4934.0,6274.583333333333
2026-01-10 20:42:34.000,2306.0714285714284,-520.8809523809525,320.2142857142857,4934.0,6274.541666666667
2026-01-10 20:42:34.020,2259.142857142857,-475.42857142857156,321.42857142857144,4934.0,6274.5
2026-01-10 20:42:34.040,2212.2142857142853,-429.9761904761906,322.6428571428571,4934.0,6274.458333333333
2026-01-10 20:42:34.060,2165.285714285714,-384.52380952380963,323.85714285714283,4934.0,6274.416666666667
2026-01-10 20:42:34.080,2118.357142857143,-339.07142857142867,325.07142857142856,4934.0,6274.375
2026-01-10 20:42:34.100,2071.4285714285716,-293.6190476190477,326.2857142857143,4934.0,6274.333333333333
2026-01-10 20:42:34.120,2024.5,-248.16666666666674,327.5,4934.0,6274.291666666667
2026-01-10 20:42:34.140,1977.5714285714284,-202.71428571428578,328.7142857142857,4934.0,6274.25
2026-01-10 20:42:34.160,1930.642857142857,-157.26190476190482,329.92857142857144,4934.0,6274.208333333333
2026-01-10 20:42:34.180,1883.7142857142856,-111.80952380952385,331.1428571428571,4934.0,6274.166666666667
2026-01-10 20:42:34.200,1836.7857142857142,-66.35714285714289,332.35714285714283,4934.0,6274.125
2026-01-10 20:42:34.220,1789.8571428571427,-20.904761904761926,333.57142857142856,4934.0,6274.083333333333
2026-01-10 20:42:34.240,1742.9285714285713,24.54761904761881,334.7857142857143,4934.0,6274.041666666667
2026-01-10 20:42:34.260,1696.0,70.0,336.0,4934.0,6274.0
2026-01-10 20:42:34.280,1736.8541666666667,31.083333333333336,335.5833333333333,4934.125,6274.25
2026-01-10 20:42:34.300,1777.7083333333333,-7.833333333333329,335.1666666666667,4934.25,6274.5
2026-01-10 20:42:34.320,1818.5625,-46.75,334.75,4934.375,6274.75
2026-01-10 20:42:34.340,1859.4166666666667,-85.66666666666666,334.3333333333333,4934.5,6275.0
2026-01-10 20:42:34.360,1900.2708333333333,-124.58333333333331,333.9166666666667,4934.625,6275.25
2026-01-10 20:42:34.380,1941.125,-163.5,333.5,4934.75,6275.5
2026-01-10 20:42:34.400,1981.9791666666665,-202.41666666666663,333.0833333333333,4934.875,6275.75
2026-01-10 20:42:34.420,2022.8333333333333,-241.33333333333331,332.6666666666667,4935.0,6276.0
2026-01-10 20:42:34.440,2063.6875,-280.25,332.25,4935.125,6276.25
2026-01-10 20:42:34.460,2104.5416666666665,-319.16666666666663,331.8333333333333,4935.25,6276.5
2026-01-10 20:42:34.480,2145.3958333333335,-358.0833333333333,331.4166666666667,4935.375,6276.75
2026-01-10 20:42:34.500,2186.25,-397.0,331.0,4935.5,6277.0
2026-01-10 20:42:34.520,2227.1041666666665,-435.91666666666663,330.5833333333333,4935.625,6277.25
2026-01-10 20:42:34.540,2267.958333333333,-474.83333333333326,330.1666666666667,4935.75,6277.5
2026-01-10 20:42:34.560,2308.8125,-513.75,329.75,4935.875,6277.75
2026-01-10 20:42:34.580,2349.6666666666665,-552.6666666666666,329.3333333333333,4936.0,6278.0
2026-01-10 20:42:34.600,2390.520833333333,-591.5833333333333,328.9166666666667,4936.125,6278.25
2026-01-10 20:42:34.620,2431.375,-630.5,328.5,4936.25,6278.5
2026-01-10 20:42:34.640,2472.2291666666665,-669.4166666666666,328.0833333333333,4936.375,6278.75
2026-01-10 20:42:34.660,2513.083333333333,-708.3333333333333,327.6666666666667,4936.5,6279.0
2026-01-10 20:42:34.680,2553.9375,-747.25,327.25,4936.625,6279.25
2026-01-10 20:42:34.700,2594.7916666666665,-786.1666666666666,326.8333333333333,4936.75,6279.5
2026-01-10 20:42:34.720,2635.645833333333,-825.0833333333333,326.4166666666667,4936.875,6279.75
2026-01-10 20:42:34.740,2676.5,-864.0,326.0,4937.0,6280.0
2026-01-10 20:42:34.760,2717.3541666666665,-902.9166666666666,325.5833333333333,4937.125,6280.25
2026-01-10 20:42:34.780,2758.208333333333,-941.8333333333333,325.1666666666667,4937.25,6280.5
2026-01-10 20:42:34.800,2799.0625,-980.75,324.75,4937.375,6280.75
2026-01-10 20:42:34.820,2839.9166666666665,-1019.6666666666665,324.3333333333333,4937.5,6281.0
2026-01-10 20:42:34.840,2880.770833333333,-1058.5833333333333,323.9166666666667,4937.625,6281.25
2026-01-10 20:42:34.860,2921.625,-1097.5,323.5,4937.75,6281.5
2026-01-10 20:42:34.880,2962.4791666666665,-1136.4166666666665,323.0833333333333,4937.875,6281.75
2026-01-10 20:42:34.900,3003.333333333333,-1175.3333333333333,322.6666666666667,4938.0,6282.0
2026-01-10 20:42:34.920,3044.1875,-1214.25,322.25,4938.125,6282.25
2026-01-10 20:42:34.940,3085.0416666666665,-1253.1666666666665,321.8333333333333,4938.25,6282.5
2026-01-10 20:42:34.960,3125.895833333333,-1292.0833333333333,321.4166666666667,4938.375,6282.75
2026-01-10 20:42:34.980,3166.75,-1331.0,321.0,4938.5,6283.0
2026-01-10 20:42:35.000,3207.6041666666665,-1369.9166666666665,320.5833333333333,4938.625,6283.25
2026-01-10 20:42:35.020,3248.458333333333,-1408.8333333333333,320.1666666666667,4938.75,6283.5
2026-01-10 20:42:35.040,3289.3125,-1447.75,319.75,4938.875,6283.75
2026-01-10 20:42:35.060,3330.1666666666665,-1486.6666666666665,319.3333333333333,4939.0,6284.0
2026-01-10 20:42:35.080,3371.020833333333,-1525.5833333333333,318.9166666666667,4939.125,6284.25
2026-01-10 20:42:35.100,3411.875,-1564.5,318.5,4939.25,6284.5
2026-01-10 20:42:35.120,3452.7291666666665,-1603.4166666666665,318.0833333333333,4939.375,6284.75
2026-01-10 20:42:35.140,3493.583333333333,-1642.3333333333333,317.6666666666667,4939.5,6285.0
2026-01-10 20:42:35.160,3534.4375,-1681.25,317.25,4939.625,6285.25
2026-01-10 20:42:35.180,3575.2916666666665,-1720.1666666666665,316.8333333333333,4939.75,6285.5
2026-01-10 20:42:35.200,3616.145833333333,-1759.0833333333333,316.4166666666667,4939.875,6285.75
2026-01-10 20:42:35.220,3657.0,-1798.0,316.0,4940.0,6286.0
2026-01-10 20:42:35.240,3657.25,-1799.2,316.5833333333333,4940.05,6285.944444444444
2026-01-10 20:42:35.260,3657.5,-1800.4,317.1666666666667,4940.1,6285.888888888889
2026-01-10 20:42:35.280,3657.75,-1801.6,317.75,4940.15,6285.833333333333
2026-01-10 20:42:35.300,3658.0,-1802.8,318.3333333333333,4940.2,6285.777777777777
2026-01-10 20:42:35.320,3658.25,-1804.0,318.9166666666667,4940.25,6285.722222222223
2026-01-10 20:42:35.340,3658.5,-1805.2,319.5,4940.3,6285.666666666667
2026-01-10 20:42:35.360,3658.75,-1806.4,320.0833333333333,4940.35,6285.611111111111
2026-01-10 20:42:35.380,3659.0,-1807.6,320.6666666666667,4940.4,6285.555555555556
2026-01-10 20:42:35.400,3659.25,-1808.8,321.25,4940.45,6285.5
2026-01-10 20:42:35.420,3659.5,-1810.0,321.8333333333333,4940.5,6285.444444444444
2026-01-10 20:42:35.440,3659.75,-1811.2,322.4166666666667,4940.55,6285.388888888889
2026-01-10 20:42:35.460,3660.0,-1812.4,323.0,4940.6,6285.333333333333
2026-01-10 20:42:35.480,3660.25,-1813.6,323.5833333333333,4940.65,6285.277777777777
2026-01-10 20:42:35.500,3660.5,-1814.8,324.1666666666667,4940.7,6285.222222222223
2026-01-10 20:42:35.520,3660.75,-1816.0,324.75,4940.75,6285.166666666667
2026-01-10 20:42:35.540,3661.0,-1817.2,325.3333333333333,4940.8,6285.111111111111
2026-01-10 20:42:35.560,3661.25,-1818.4,325.9166666666667,4940.85,6285.055555555556
2026-01-10 20:42:35.580,3661.5,-1819.6,326.5,4940.9,6285.0
2026-01-10 20:42:35.600,3661.75,-1820.8,327.0833333333333,4940.95,6284.944444444444
2026-01-10 20:42:35.620,3662.0,-1822.0,327.6666666666667,4941.0,6284.888888888889
2026-01-10 20:42:35.640,3662.25,-1823.2,328.25,4941.05,6284.833333333333
2026-01-10 20:42:35.660,3662.5,-1824.4,328.8333333333333,4941.1,6284.777777777777
2026-01-10 20:42:35.680,3662.75,-1825.6,329.4166666666667,4941.15,6284.722222222223
2026-01-10 20:42:35.700,3663.0,-1826.8,330.0,4941.2,6284.666666666667
2026-01-10 20:42:35.720,3663.25,-1828.0,330.5833333333333,4941.25,6284.611111111111
2026-01-10 20:42:35.740,3663.5,-1829.2,331.1666666666667,4941.3,6284.555555555556
2026-01-10 20:42:35.760,3663.75,-1830.4,331.75,4941.35,6284.5
2026-01-10 20:42:35.780,3664.0,-1831.6,332.3333333333333,4941.4,6284.444444444444
2026-01-10 20:42:35.800,3664.25,-1832.8,332.9166666666667,4941.45,6284.388888888889
2026-01-10 20:42:35.820,3664.5,-1834.0,333.5,4941.5,6284.333333333333
2026-01-10 20:42:35.840,3664.75,-1835.2,334.0833333333333,4941.55,6284.277777777777
2026-01-10 20:42:35.860,3665.0,-1836.4,334.6666666666667,4941.6,6284.222222222223
2026-01-10 20:42:35.880,3665.25,-1837.6,335.25,4941.65,6284.166666666667
2026-01-10 20:42:35.900,3665.5,-1838.8,335.8333333333333,4941.7,6284.111111111111
2026-01-10 20:42:35.920,3665.75,-1840.0,336.4166666666667,4941.75,6284.055555555556
2026-01-10 20:42:35.940,3666.0,-1841.2,337.0,4941.8,6284.0
2026-01-10 20:42:35.960,3666.25,-1842.4,337.5833333333333,4941.85,6283.944444444444
2026-01-10 20:42:35.980,3666.5,-1843.6,338.1666666666667,4941.9,6283.888888888889
2026-01-10 20:42:36.000,3666.75,-1844.8,338.75,4941.95,6283.833333333333
2026-01-10 20:42:36.020,3667.0,-1846.0,339.3333333333333,4942.0,6283.777777777777
2026-01-10 20:42:36.040,3667.25,-1847.2,339.9166666666667,4942.05,6283.722222222223
2026-01-10 20:42:36.060,3667.5,-1848.4,340.5,4942.1,6283.666666666667
2026-01-10 20:42:36.080,3667.75,-1849.6,341.0833333333333,4942.15,6283.611111111111
2026-01-10 20:42:36.100,3668.0,-1850.8,341.6666666666667,4942.2,6283.555555555556
2026-01-10 20:42:36.120,3668.25,-1852.0,342.25,4942.25,6283.5
2026-01-10 20:42:36.140,3668.5,-1853.2,342.8333333333333,4942.3,6283.444444444444
2026-01-10 20:42:36.160,3668.75,-1854.4,343.4166666666667,4942.35,6283.388888888889
2026-01-10 20:42:36.180,3669.0,-1855.6,344.0,4942.4,6283.333333333333
2026-01-10 20:42:36.200,3669.25,-1856.8,344.5833333333333,4942.45,6283.277777777777
2026-01-10 20:42:36.220,3669.5,-1858.0,345.1666666666667,4942.5,6283.222222222223
2026-01-10 20:42:36.240,3669.75,-1859.2,345.75,4942.55,6283.166666666667
2026-01-10 20:42:36.260,3670.0,-1860.4,346.3333333333333,4942.6,6283.111111111111
2026-01-10 20:42:36.280,3670.25,-1861.6,346.9166666666667,4942.65,6283.055555555556
2026-01-10 20:42:36.300,3670.5,-1862.8,347.5,4942.7,6283.0
2026-01-10 20:42:36.320,3670.75,-1864.0,348.0833333333333,4942.75,6283.333333333333
2026-01-10 20:42:36.340,3671.0,-1865.2,348.6666666666667,4942.8,6283.666666666667
2026-01-10 20:42:36.360,3671.25,-1866.4,349.25,4942.85,6284.0
2026-01-10 20:42:36.380,3671.5,-1867.6,349.8333333333333,4942.9,6284.333333333333
2026-01-10 20:42:36.400,3671.75,-1868.8,350.4166666666667,4942.95,6284.666666666667
2026-01-10 20:42:36.420,3672.0,-1870.0,351.0,4943.0,6285.0
2026-01-10 20:42:36.440,3624.190476190476,-1870.904761904762,349.8333333333333,4943.214285714285,6285.333333333333
2026-01-10 20:42:36.460,3576.3809523809523,-1871.8095238095239,348.6666666666667,4943.428571428572,6285.666666666667
2026-01-10 20:42:36.480,3528.5714285714284,-1872.7142857142858,347.5,4943.642857142857,6286.0
2026-01-10 20:42:36.500,3480.7619047619046,-1873.6190476190477,346.3333333333333,4943.857142857143,6286.333333333333
2026-01-10 20:42:36.520,3432.9523809523807,-1874.5238095238096,345.1666666666667,4944.071428571428,6286.666666666667
2026-01-10 20:42:36.540,3385.142857142857,-1875.4285714285713,344.0,4944.285714285715,6287.0
2026-01-10 20:42:36.560,3337.3333333333335,-1876.3333333333333,342.8333333333333,4944.5,6287.333333333333
2026-01-10 20:42:36.580,3289.5238095238096,-1877.2380952380952,341.6666666666667,4944.714285714285,6287.666666666667
2026-01-10 20:42:36.600,3241.714285714286,-1878.142857142857,340.5,4944.928571428572,6288.0
2026-01-10 20:42:36.620,3193.904761904762,-1879.047619047619,339.3333333333333,4945.142857142857,6288.333333333333
2026-01-10 20:42:36.640,3146.095238095238,-1879.952380952381,338.1666666666667,4945.357142857143,6288.666666666667
2026-01-10 20:42:36.660,3098.285714285714,-1880.857142857143,337.0,4945.571428571428,6289.0
2026-01-10 20:42:36.680,3050.4761904761904,-1881.7619047619048,335.8333333333333,4945.785714285715,6289.333333333333
2026-01-10 20:42:36.700,3002.6666666666665,-1882.6666666666667,334.6666666666667,4946.0,6289.666666666667
2026-01-10 20:42:36.720,2954.857142857143,-1883.5714285714287,333.5,4946.214285714285,6290.0
2026-01-10 20:42:36.740,2907.0476190476193,-1884.4761904761904,332.3333333333333,4946.428571428572,6290.333333333333
2026-01-10 20:42:36.760,2859.2380952380954,-1885.3809523809523,331.1666666666667,4946.642857142857,6290.666666666667
2026-01-10 20:42:36.780,2811.4285714285716,-1886.2857142857142,330.0,4946.857142857143,6291.0
2026-01-10 20:42:36.800,2763.6190476190477,-1887.1904761904761,328.8333333333333,4947.071428571428,6291.333333333333
2026-01-10 20:42:36.820,2715.809523809524,-1888.095238095238,327.6666666666667,4947.285714285715,6291.666666666667
2026-01-10 20:42:36.840,2668.0,-1889.0,326.5,4947.5,6292.0
2026-01-10 20:42:36.860,2620.190476190476,-1889.904761904762,325.3333333333333,4947.714285714285,6292.333333333333
2026-01-10 20:42:36.880,2572.3809523809523,-1890.8095238095239,324.1666666666667,4947.928571428572,6292.666666666667
2026-01-10 20:42:36.900,2524.5714285714284,-1891.7142857142858,323.0,4948.142857142857,6293.0
2026-01-10 20:42:36.920,2476.7619047619046,-1892.6190476190477,321.8333333333333,4948.357142857143,6293.333333333333
2026-01-10 20:42:36.940,2428.9523809523807,-1893.5238095238096,320.6666666666667,4948.571428571428,6293.666666666667
2026-01-10 20:42:36.960,2381.142857142857,-1894.4285714285713,319.5,4948.785714285715,6294.0
2026-01-10 20:42:36.980,2333.333333333333,-1895.3333333333333,318.3333333333333,4949.0,6294.333333333333
2026-01-10 20:42:37.000,2285.523809523809,-1896.2380952380952,317.1666666666667,4949.214285714285,6294.666666666667
2026-01-10 20:42:37.020,2237.714285714286,-1897.142857142857,316.0,4949.428571428572,6295.0
2026-01-10 20:42:37.040,2189.904761904762,-1898.047619047619,314.8333333333333,4949.642857142857,6295.333333333333
2026-01-10 20:42:37.060,2142.095238095238,-1898.952380952381,313.6666666666667,4949.857142857143,6295.666666666667
2026-01-10 20:42:37.080,2094.285714285714,-1899.857142857143,312.5,4950.071428571428,6296.0
2026-01-10 20:42:37.100,2046.4761904761904,-1900.7619047619048,311.3333333333333,4950.285714285715,6296.333333333333
2026-01-10 20:42:37.120,1998.6666666666667,-1901.6666666666667,310.1666666666667,4950.5,6296.666666666667
2026-01-10 20:42:37.140,1950.857142857143,-1902.5714285714287,309.0,4950.714285714285,6297.0
2026-01-10 20:42:37.160,1903.047619047619,-1903.4761904761904,307.8333333333333,4950.928571428572,6297.333333333333
2026-01-10 20:42:37.180,1855.2380952380952,-1904.3809523809523,306.6666666666667,4951.142857142857,6297.666666666667
2026-01-10 20:42:37.200,1807.4285714285713,-1905.2857142857142,305.5,4951.357142857143,6298.0
2026-01-10 20:42:37.220,1759.6190476190477,-1906.1904761904761,304.3333333333333,4951.571428571428,6298.333333333333
2026-01-10 20:42:37.240,1711.8095238095239,-1907.095238095238,303.1666666666667,4951.785714285715,6298.666666666667
2026-01-10 20:42:37.260,1664.0,-1908.0,302.0,4952.0,6299.0
2026-01-10 20:42:37.280,1660.2291666666667,-1906.0416666666667,303.4375,4952.25,6299.1875
2026-01-10 20:42:37.300,1656.4583333333333,-1904.0833333333333,304.875,4952.5,6299.375
2026-01-10 20:42:37.320,1652.6875,-1902.125,306.3125,4952.75,6299.5625
2026-01-10 20:42:37.340,1648.9166666666667,-1900.1666666666667,307.75,4953.0,6299.75
2026-01-10 20:42:37.360,1645.1458333333333,-1898.2083333333333,309.1875,4953.25,6299.9375
2026-01-10 20:42:37.380,1641.375,-1896.25,310.625,4953.5,6300.125
2026-01-10 20:42:37.400,1637.6041666666667,-1894.2916666666667,312.0625,4953.75,6300.3125
2026-01-10 20:42:37.420,1633.8333333333333,-1892.3333333333333,313.5,4954.0,6300.5
2026-01-10 20:42:37.440,1630.0625,-1890.375,314.9375,4954.25,6300.6875
2026-01-10 20:42:37.460,1626.2916666666667,-1888.4166666666667,316.375,4954.5,6300.875
2026-01-10 20:42:37.480,1622.5208333333333,-1886.4583333333333,317.8125,4954.75,6301.0625
2026-01-10 20:42:37.500,1618.75,-1884.5,319.25,4955.0,6301.25
2026-01-10 20:42:37.520,1614.9791666666667,-1882.5416666666667,320.6875,4955.25,6301.4375
2026-01-10 20:42:37.540,1611.2083333333333,-1880.5833333333333,322.125,4955.5,6301.625
2026-01-10 20:42:37.560,1607.4375,-1878.625,323.5625,4955.75,6301.8125
2026-01-10 20:42:37.580,1603.6666666666667,-1876.6666666666667,325.0,4956.0,6302.0
2026-01-10 20:42:37.600,1599.8958333333333,-1874.7083333333333,326.4375,4956.25,6302.1875
2026-01-10 20:42:37.620,1596.125,-1872.75,327.875,4956.5,6302.375
2026-01-10 20:42:37.640,1592.3541666666667,-1870.7916666666667,329.3125,4956.75,6302.5625
2026-01-10 20:42:37.660,1588.5833333333333,-1868.8333333333333,330.75,4957.0,6302.75
2026-01-10 20:42:37.680,1584.8125,-1866.875,332.1875,4957.25,6302.9375
2026-01-10 20:42:37.700,1581.0416666666667,-1864.9166666666667,333.625,4957.5,6303.125
2026-01-10 20:42:37.720,1577.2708333333333,-1862.9583333333333,335.0625,4957.75,6303.3125
2026-01-10 20:42:37.740,1573.5,-1861.0,336.5,4958.0,6303.5
2026-01-10 20:42:37.760,1569.7291666666667,-1859.0416666666667,337.9375,4958.25,6303.6875
2026-01-10 20:42:37.780,1565.9583333333333,-1857.0833333333333,339.375,4958.5,6303.875
2026-01-10 20:42:37.800,1562.1875,-1855.125,340.8125,4958.75,6304.0625
2026-01-10 20:42:37.820,1558.4166666666667,-1853.1666666666667,342.25,4959.0,6304.25
2026-01-10 20:42:37.840,1554.6458333333333,-1851.2083333333333,343.6875,4959.25,6304.4375
2026-01-10 20:42:37.860,1550.875,-1849.25,345.125,4959.5,6304.625
2026-01-10 20:42:37.880,1547.1041666666667,-1847.2916666666667,346.5625,4959.75,6304.8125
2026-01-10 20:42:37.900,1543.3333333333333,-1845.3333333333333,348.0,4960.0,6305.0
2026-01-10 20:42:37.920,1539.5625,-1843.375,349.4375,4960.25,6305.1875
2026-01-10 20:42:37.940,1535.7916666666667,-1841.4166666666667,350.875,4960.5,6305.375
2026-01-10 20:42:37.960,1532.0208333333333,-1839.4583333333333,352.3125,4960.75,6305.5625
2026-01-10 20:42:37.980,1528.25,-1837.5,353.75,4961.0,6305.75
2026-01-10 20:42:38.000,1524.4791666666667,-1835.5416666666667,355.1875,4961.25,6305.9375
2026-01-10 20:42:38.020,1520.7083333333333,-1833.5833333333333,356.625,4961.5,6306.125
2026-01-10 20:42:38.040,1516.9375,-1831.625,358.0625,4961.75,6306.3125
2026-01-10 20:42:38.060,1513.1666666666667,-1829.6666666666667,359.5,4962.0,6306.5
2026-01-10 20:42:38.080,1509.3958333333333,-1827.7083333333333,360.9375,4962.25,6306.6875
2026-01-10 20:42:38.100,1505.625,-1825.75,362.375,4962.5,6306.875
2026-01-10 20:42:38.120,1501.8541666666667,-1823.7916666666667,363.8125,4962.75,6307.0625
2026-01-10 20:42:38.140,1498.0833333333333,-1821.8333333333333,365.25,4963.0,6307.25
2026-01-10 20:42:38.160,1494.3125,-1819.875,366.6875,4963.25,6307.4375
2026-01-10 20:42:38.180,1490.5416666666667,-1817.9166666666667,368.125,4963.5,6307.625
2026-01-10 20:42:38.200,1486.7708333333333,-1815.9583333333333,369.5625,4963.75,6307.8125
2026-01-10 20:42:38.220,1483.0,-1814.0,371.0,4964.0,6308.0
2026-01-10 20:42:38.240,1485.611111111111,-1815.361111111111,370.8611111111111,4963.263888888889,6307.861111111111
2026-01-10 20:42:38.260,1488.2222222222222,-1816.7222222222222,370.72222222222223,4962.527777777777,6307.722222222223
2026-01-10 20:42:38.280,1490.8333333333333,-1818.0833333333333,370.5833333333333,4961.791666666667,6307.583333333333
2026-01-10 20:42:38.300,1493.4444444444443,-1819.4444444444443,370.44444444444446,4961.055555555556,6307.444444444444
2026-01-10 20:42:38.320,1496.0555555555557,-1820.8055555555557,370.30555555555554,4960.319444444444,6307.305555555556
2026-01-10 20:42:38.340,1498.6666666666667,-1822.1666666666667,370.1666666666667,4959.583333333333,6307.166666666667
2026-01-10 20:42:38.360,1501.2777777777778,-1823.5277777777778,370.02777777777777,4958.847222222223,6307.027777777777
2026-01-10 20:42:38.380,1503.888888888889,-1824.888888888889,369.8888888888889,4958.111111111111,6306.888888888889
2026-01-10 20:42:38.400,1506.5,-1826.25,369.75,4957.375,6306.75
2026-01-10 20:42:38.420,1509.111111111111,-1827.611111111111,369.6111111111111,4956.638888888889,6306.611111111111
2026-01-10 20:42:38.440,1511.7222222222222,-1828.9722222222222,369.47222222222223,4955.902777777777,6306.472222222223
2026-01-10 20:42:38.460,1514.3333333333333,-1830.3333333333333,369.3333333333333,4955.166666666667,6306.333333333333
2026-01-10 20:42:38.480,1516.9444444444443,-1831.6944444444443,369.19444444444446,4954.430555555556,6306.194444444444
2026-01-10 20:42:38.500,1519.5555555555557,-1833.0555555555557,369.05555555555554,4953.694444444444,6306.055555555556
2026-01-10 20:42:38.520,1522.1666666666667,-1834.4166666666667,368.9166666666667,4952.958333333333,6305.916666666667
2026-01-10 20:42:38.540,1524.7777777777778,-1835.7777777777778,368.77777777777777,4952.222222222223,6305.777777777777
2026-01-10 20:42:38.560,1527.388888888889,-1837.138888888889,368.6388888888889,4951.486111111111,6305.638888888889
2026-01-10 20:42:38.580,1530.0,-1838.5,368.5,4950.75,6305.5
2026-01-10 20:42:38.600,1532.611111111111,-1839.861111111111,368.3611111111111,4950.013888888889,6305.361111111111
2026-01-10 20:42:38.620,1535.2222222222222,-1841.2222222222222,368.22222222222223,4949.277777777777,6305.222222222223
2026-01-10 20:42:38.640,1537.8333333333333,-1842.5833333333333,368.0833333333333,4948.541666666667,6305.083333333333
2026-01-10 20:42:38.660,1540.4444444444443,-1843.9444444444443,367.94444444444446,4947.805555555556,6304.944444444444
2026-01-10 20:42:38.680,1543.0555555555557,-1845.3055555555557,367.80555555555554,4947.069444444444,6304.805555555556
2026-01-10 20:42:38.700,1545.6666666666667,-1846.6666666666667,367.6666666666667,4946.333333333333,6304.666666666667
2026-01-10 20:42:38.720,1548.2777777777778,-1848.0277777777778,367.52777777777777,4945.597222222223,6304.527777777777
2026-01-10 20:42:38.740,1550.888888888889,-1849.388888888889,367.3888888888889,4944.861111111111,6304.388888888889
2026-01-10 20:42:38.760,1553.5,-1850.75,367.25,4944.125,6304.25
2026-01-10 20:42:38.780,1556.111111111111,-1852.111111111111,367.1111111111111,4943.388888888889,6304.111111111111
2026-01-10 20:42:38.800,1558.7222222222222,-1853.4722222222222,366.97222222222223,4942.652777777777,6303.972222222223
2026-01-10 20:42:38.820,1561.3333333333333,-1854.8333333333333,366.8333333333333,4941.916666666667,6303.833333333333
2026-01-10 20:42:38.840,1563.9444444444443,-1856.1944444444443,366.69444444444446,4941.180555555556,6303.694444444444
2026-01-10 20:42:38.860,1566.5555555555557,-1857.5555555555557,366.55555555555554,4940.444444444444,6303.555555555556
2026-01-10 20:42:38.880,1569.1666666666667,-1858.9166666666667,366.4166666666667,4939.708333333333,6303.416666666667
2026-01-10 20:42:38.900,1571.7777777777778,-1860.2777777777778,366.27777777777777,4938.972222222223,6303.277777777777
2026-01-10 20:42:38.920,1574.388888888889,-1861.638888888889,366.1388888888889,4938.236111111111,6303.138888888889
2026-01-10 20:42:38.940,1577.0,-1863.0,366.0,4937.5,6303.0
2026-01-10 20:42:38.960,1579.611111111111,-1864.361111111111,365.8611111111111,4936.763888888889,6302.861111111111
2026-01-10 20:42:38.980,1582.2222222222222,-1865.7222222222222,365.72222222222223,4936.027777777777,6302.722222222223
2026-01-10 20:42:39.000,1584.8333333333333,-1867.0833333333333,365.5833333333333,4935.291666666667,6302.583333333333
2026-01-10 20:42:39.020,1587.4444444444443,-1868.4444444444443,365.44444444444446,4934.555555555556,6302.444444444444
2026-01-10 20:42:39.040,1590.0555555555557,-1869.8055555555557,365.30555555555554,4933.819444444444,6302.305555555556
2026-01-10 20:42:39.060,1592.6666666666667,-1871.1666666666667,365.1666666666667,4933.083333333333,6302.166666666667
2026-01-10 20:42:39.080,1595.2777777777778,-1872.5277777777778,365.02777777777777,4932.347222222223,6302.027777777777
2026-01-10 20:42:39.100,1597.888888888889,-1873.888888888889,364.8888888888889,4931.611111111111,6301.888888888889
2026-01-10 20:42:39.120,1600.5,-1875.25,364.75,4930.875,6301.75
2026-01-10 20:42:39.140,1603.111111111111,-1876.611111111111,364.6111111111111,4930.138888888889,6301.611111111111
2026-01-10 20:42:39.160,1605.7222222222222,-1877.9722222222222,364.47222222222223,4929.402777777777,6301.472222222223
2026-01-10 20:42:39.180,1608.3333333333333,-1879.3333333333333,364.3333333333333,4928.666666666667,6301.333333333333
2026-01-10 20:42:39.200,1610.9444444444443,-1880.6944444444443,364.19444444444446,4927.930555555556,6301.194444444444
2026-01-10 20:42:39.220,1613.5555555555557,-1882.0555555555557,364.05555555555554,4927.194444444444,6301.055555555556
2026-01-10 20:42:39.240,1616.1666666666667,-1883.4166666666667,363.9166666666667,4926.458333333333,6300.916666666667
2026-01-10 20:42:39.260,1618.7777777777778,-1884.7777777777778,363.77777777777777,4925.722222222223,6300.777777777777
2026-01-10 20:42:39.280,1621.388888888889,-1886.138888888889,363.6388888888889,4924.986111111111,6300.638888888889
2026-01-10 20:42:39.300,1624.0,-1887.5,363.5,4924.25,6300.5
2026-01-10 20:42:39.320,1626.611111111111,-1888.861111111111,363.3611111111111,4923.513888888889,6300.361111111111
2026-01-10 20:42:39.340,1629.2222222222222,-1890.2222222222222,363.22222222222223,4922.777777777777,6300.222222222223
2026-01-10 20:42:39.360,1631.8333333333333,-1891.5833333333333,363.0833333333333,4922.041666666667,6300.083333333333
2026-01-10 20:42:39.380,1634.4444444444443,-1892.9444444444443,362.94444444444446,4921.305555555556,6299.944444444444
2026-01-10 20:42:39.400,1637.0555555555557,-1894.3055555555557,362.80555555555554,4920.569444444444,6299.805555555556
2026-01-10 20:42:39.420,1639.6666666666667,-1895.6666666666667,362.6666666666667,4919.833333333333,6299.666666666667
2026-01-10 20:42:39.440,1642.2777777777778,-1897.0277777777778,362.52777777777777,4919.097222222223,6299.527777777777
2026-01-10 20:42:39.460,1644.888888888889,-1898.388888888889,362.3888888888889,4918.361111111111,6299.388888888889
2026-01-10 20:42:39.480,1647.5,-1899.75,362.25,4917.625,6299.25
2026-01-10 20:42:39.500,1650.111111111111,-1901.111111111111,362.1111111111111,4916.888888888889,6299.111111111111
2026-01-10 20:42:39.520,1652.7222222222222,-1902.4722222222222,361.97222222222223,4916.152777777777,6298.972222222223
2026-01-10 20:42:39.540,1655.3333333333333,-1903.8333333333333,361.8333333333333,4915.416666666667,6298.833333333333
2026-01-10 20:42:39.560,1657.9444444444443,-1905.1944444444443,361.69444444444446,4914.680555555556,6298.694444444444
2026-01-10 20:42:39.580,1660.5555555555557,-1906.5555555555557,361.55555555555554,4913.944444444444,6298.555555555556
2026-01-10 20:42:39.600,1663.1666666666667,-1907.9166666666667,361.4166666666667,4913.208333333333,6298.416666666667
2026-01-10 20:42:39.620,1665.7777777777778,-1909.2777777777778,361.27777777777777,4912.472222222223,6298.277777777777
2026-01-10 20:42:39.640,1668.388888888889,-1910.638888888889,361.1388888888889,4911.736111111111,6298.138888888889
2026-01-10 20:42:39.660,1671.0,-1912.0,361.0,4911.0,6298.0
2026-01-10 20:42:39.680,1738.2333333333333,-1910.2,360.6,4911.633333333333,6297.266666666666
2026-01-10 20:42:39.700,1805.4666666666667,-1908.4,360.2,4912.266666666666,6296.533333333334
2026-01-10 20:42:39.720,1872.7,-1906.6,359.8,4912.9,6295.8
2026-01-10 20:42:39.740,1939.9333333333334,-1904.8,359.4,4913.533333333334,6295.066666666667
2026-01-10 20:42:39.760,2007.1666666666667,-1903.0,359.0,4914.166666666667,6294.333333333333
2026-01-10 20:42:39.780,2074.4,-1901.2,358.6,4914.8,6293.6
2026-01-10 20:42:39.800,2141.633333333333,-1899.4,358.2,4915.433333333333,6292.866666666667
2026-01-10 20:42:39.820,2208.866666666667,-1897.6,357.8,4916.066666666667,6292.133333333333
2026-01-10 20:42:39.840,2276.1,-1895.8,357.4,4916.7,6291.4
2026-01-10 20:42:39.860,2343.3333333333335,-1894.0,357.0,4917.333333333333,6290.666666666667
2026-01-10 20:42:39.880,2410.5666666666666,-1892.2,356.6,4917.966666666666,6289.933333333333
2026-01-10 20:42:39.900,2477.8,-1890.4,356.2,4918.6,6289.2
2026-01-10 20:42:39.920,2545.0333333333333,-1888.6,355.8,4919.233333333334,6288.466666666666
2026-01-10 20:42:39.940,2612.2666666666664,-1886.8,355.4,4919.866666666667,6287.733333333334
2026-01-10 20:42:39.960,2679.5,-1885.0,355.0,4920.5,6287.0
2026-01-10 20:42:39.980,2746.7333333333336,-1883.2,354.6,4921.133333333333,6286.266666666666
2026-01-10 20:42:40.000,2813.9666666666667,-1881.4,354.2,4921.766666666666,6285.533333333334
2026-01-10 20:42:40.020,2881.2,-1879.6,353.8,4922.4,6284.8
2026-01-10 20:42:40.040,2948.4333333333334,-1877.8,353.4,4923.033333333334,6284.066666666667
2026-01-10 20:42:40.060,3015.666666666667,-1876.0,353.0,4923.666666666667,6283.333333333333
2026-01-10 20:42:40.080,3082.9,-1874.2,352.6,4924.3,6282.6
2026-01-10 20:42:40.100,3150.133333333333,-1872.4,352.2,4924.933333333333,6281.866666666667
2026-01-10 20:42:40.120,3217.366666666667,-1870.6,351.8,4925.566666666667,6281.133333333333
2026-01-10 20:42:40.140,3284.6,-1868.8,351.4,4926.2,6280.4
2026-01-10 20:42:40.160,3351.833333333333,-1867.0,351.0,4926.833333333333,6279.666666666667
2026-01-10 20:42:40.180,3419.0666666666666,-1865.2,350.6,4927.466666666666,6278.933333333333
2026-01-10 20:42:40.200,3486.3,-1863.4,350.2,4928.1,6278.2
2026-01-10 20:42:40.220,3553.5333333333333,-1861.6,349.8,4928.733333333334,6277.466666666666
2026-01-10 20:42:40.240,3620.7666666666664,-1859.8,349.4,4929.366666666667,6276.733333333334
2026-01-10 20:42:40.260,3688.0,-1858.0,349.0,4930.0,6276.0
2026-01-10 20:42:40.280,3651.537037037037,-1822.851851851852,308.22222222222223,4930.185185185185,6276.229166666667
2026-01-10 20:42:40.300,3615.074074074074,-1787.7037037037037,267.44444444444446,4930.37037037037,6276.458333333333
2026-01-10 20:42:40.320,3578.6111111111113,-1752.5555555555557,226.66666666666666,4930.555555555556,6276.6875
2026-01-10 20:42:40.340,3542.1481481481483,-1717.4074074074074,185.88888888888889,4930.740740740741,6276.916666666667
2026-01-10 20:42:40.360,3505.685185185185,-1682.2592592592594,145.11111111111111,4930.925925925926,6277.145833333333
2026-01-10 20:42:40.380,3469.222222222222,-1647.111111111111,104.33333333333331,4931.111111111111,6277.375
2026-01-10 20:42:40.400,3432.759259259259,-1611.962962962963,63.55555555555554,4931.2962962962965,6277.604166666667
2026-01-10 20:42:40.420,3396.2962962962965,-1576.8148148148148,22.77777777777777,4931.481481481482,6277.833333333333
2026-01-10 20:42:40.440,3359.8333333333335,-1541.6666666666667,-18.0,4931.666666666667,6278.0625
2026-01-10 20:42:40.460,3323.3703703703704,-1506.5185185185185,-58.77777777777777,4931.851851851852,6278.291666666667
2026-01-10 20:42:40.480,3286.9074074074074,-1471.3703703703704,-99.55555555555554,4932.037037037037,6278.520833333333
2026-01-10 20:42:40.500,3250.4444444444443,-1436.2222222222222,-140.33333333333337,4932.222222222223,6278.75
2026-01-10 20:42:40.520,3213.9814814814818,-1401.0740740740741,-181.1111111111111,4932.407407407408,6278.979166666667
2026-01-10 20:42:40.540,3177.5185185185187,-1365.925925925926,-221.8888888888889,4932.592592592592,6279.208333333333
2026-01-10 20:42:40.560,3141.0555555555557,-1330.7777777777778,-262.66666666666663,4932.777777777777,6279.4375
2026-01-10 20:42:40.580,3104.5925925925926,-1295.6296296296296,-303.44444444444446,4932.962962962963,6279.666666666667
2026-01-10 20:42:40.600,3068.1296296296296,-1260.4814814814815,-344.2222222222223,4933.148148148148,6279.895833333333
2026-01-10 20:42:40.620,3031.666666666667,-1225.3333333333335,-385.0,4933.333333333333,6280.125
2026-01-10 20:42:40.640,2995.2037037037035,-1190.1851851851852,-425.7777777777778,4933.518518518518,6280.354166666667
2026-01-10 20:42:40.660,2958.740740740741,-1155.037037037037,-466.55555555555554,4933.7037037037035,6280.583333333333
2026-01-10 20:42:40.680,2922.277777777778,-1119.888888888889,-507.33333333333337,4933.888888888889,6280.8125
2026-01-10 20:42:40.700,2885.814814814815,-1084.7407407407409,-548.1111111111111,4934.074074074074,6281.041666666667
2026-01-10 20:42:40.720,2849.3518518518517,-1049.5925925925926,-588.8888888888889,4934.259259259259,6281.270833333333
2026-01-10 20:42:40.740,2812.8888888888887,-1014.4444444444446,-629.6666666666667,4934.444444444444,6281.5
2026-01-10 20:42:40.760,2776.425925925926,-979.2962962962964,-670.4444444444445,4934.62962962963,6281.729166666667
2026-01-10 20:42:40.780,2739.962962962963,-944.1481481481483,-711.2222222222222,4934.814814814815,6281.958333333333
2026-01-10 20:42:40.800,2703.5,-909.0000000000001,-752.0,4935.0,6282.1875
2026-01-10 20:42:40.820,2667.037037037037,-873.851851851852,-792.7777777777778,4935.185185185185,6282.416666666667
2026-01-10 20:42:40.840,2630.574074074074,-838.7037037037038,-833.5555555555557,4935.37037037037,6282.645833333333
2026-01-10 20:42:40.860,2594.1111111111113,-803.5555555555557,-874.3333333333333,4935.555555555556,6282.875
2026-01-10 20:42:40.880,2557.6481481481483,-768.4074074074074,-915.1111111111111,4935.740740740741,6283.104166666667
2026-01-10 20:42:40.900,2521.185185185185,-733.2592592592594,-955.8888888888889,4935.925925925926,6283.333333333333
2026-01-10 20:42:40.920,2484.722222222222,-698.1111111111113,-996.6666666666667,4936.111111111111,6283.5625
2026-01-10 20:42:40.940,2448.259259259259,-662.962962962963,-1037.4444444444446,4936.2962962962965,6283.791666666667
2026-01-10 20:42:40.960,2411.7962962962965,-627.814814814815,-1078.2222222222222,4936.481481481482,6284.020833333333
2026-01-10 20:42:40.980,2375.3333333333335,-592.6666666666667,-1119.0,4936.666666666667,6284.25
2026-01-10 20:42:41.000,2338.8703703703704,-557.5185185185187,-1159.7777777777778,4936.851851851852,6284.479166666667
2026-01-10 20:42:41.020,2302.4074074074074,-522.3703703703704,-1200.5555555555557,4937.037037037037,6284.708333333333
2026-01-10 20:42:41.040,2265.9444444444443,-487.2222222222224,-1241.3333333333333,4937.222222222223,6284.9375
2026-01-10 20:42:41.060,2229.4814814814818,-452.07407407407413,-1282.111111111111,4937.407407407408,6285.166666666667
2026-01-10 20:42:41.080,2193.0185185185182,-416.9259259259261,-1322.888888888889,4937.592592592592,6285.395833333333
2026-01-10 20:42:41.100,2156.5555555555557,-381.7777777777778,-1363.6666666666667,4937.777777777777,6285.625
2026-01-10 20:42:41.120,2120.0925925925926,-346.6296296296298,-1404.4444444444446,4937.962962962963,6285.854166666667
2026-01-10 20:42:41.140,2083.6296296296296,-311.4814814814815,-1445.2222222222222,4938.148148148148,6286.083333333333
2026-01-10 20:42:41.160,2047.1666666666667,-276.3333333333335,-1486.0,4938.333333333333,6286.3125
2026-01-10 20:42:41.180,2010.7037037037037,-241.18518518518522,-1526.7777777777778,4938.518518518518,6286.541666666667
2026-01-10 20:42:41.200,1974.2407407407409,-206.03703703703718,-1567.5555555555557,4938.7037037037035,6286.770833333333
2026-01-10 20:42:41.220,1937.7777777777778,-170.88888888888914,-1608.3333333333335,4938.888888888889,6287.0
2026-01-10 20:42:41.240,1901.3148148148148,-135.74074074074088,-1649.111111111111,4939.074074074074,6287.2037037037035
2026-01-10 20:42:41.260,1864.851851851852,-100.59259259259284,-1689.888888888889,4939.259259259259,6287.407407407408
2026-01-10 20:42:41.280,1828.388888888889,-65.44444444444457,-1730.6666666666665,4939.444444444444,6287.611111111111
2026-01-10 20:42:41.300,1791.925925925926,-30.296296296296532,-1771.4444444444443,4939.62962962963,6287.814814814815
2026-01-10 20:42:41.320,1755.462962962963,4.851851851851734,-1812.2222222222222,4939.814814814815,6288.018518518518
2026-01-10 20:42:41.340,1719.0,40.0,-1853.0,4940.0,6288.222222222223
2026-01-10 20:42:41.360,1759.3125,44.770833333333336,-1808.1458333333333,4939.916666666667,6288.425925925926
2026-01-10 20:42:41.380,1799.625,49.541666666666664,-1763.2916666666667,4939.833333333333,6288.62962962963
2026-01-10 20:42:41.400,1839.9375,54.3125,-1718.4375,4939.75,6288.833333333333
2026-01-10 20:42:41.420,1880.25,59.08333333333333,-1673.5833333333333,4939.666666666667,6289.037037037037
2026-01-10 20:42:41.440,1920.5625,63.854166666666664,-1628.7291666666667,4939.583333333333,6289.240740740741
2026-01-10 20:42:41.460,1960.875,68.625,-1583.875,4939.5,6289.444444444444
2026-01-10 20:42:41.480,2001.1875,73.39583333333333,-1539.0208333333335,4939.416666666667,6289.648148148148
2026-01-10 20:42:41.500,2041.5,78.16666666666666,-1494.1666666666667,4939.333333333333,6289.851851851852
2026-01-10 20:42:41.520,2081.8125,82.9375,-1449.3125,4939.25,6290.055555555556
2026-01-10 20:42:41.540,2122.125,87.70833333333333,-1404.4583333333335,4939.166666666667,6290.259259259259
2026-01-10 20:42:41.560,2162.4375,92.47916666666666,-1359.6041666666667,4939.083333333333,6290.462962962963
2026-01-10 20:42:41.580,2202.75,97.25,-1314.75,4939.0,6290.666666666667
2026-01-10 20:42:41.600,2243.0625,102.02083333333333,-1269.8958333333335,4938.916666666667,6290.87037037037
2026-01-10 20:42:41.620,2283.375,106.79166666666666,-1225.0416666666667,4938.833333333333,6291.074074074074
2026-01-10 20:42:41.640,2323.6875,111.5625,-1180.1875,4938.75,6291.277777777777
2026-01-10 20:42:41.660,2364.0,116.33333333333333,-1135.3333333333335,4938.666666666667,6291.481481481482
2026-01-10 20:42:41.680,2404.3125,121.10416666666666,-1090.4791666666667,4938.583333333333,6291.685185185185
2026-01-10 20:42:41.700,2444.625,125.875,-1045.625,4938.5,6291.888888888889
2026-01-10 20:42:41.720,2484.9375,130.64583333333331,-1000.7708333333334,4938.416666666667,6292.092592592592
2026-01-10 20:42:41.740,2525.25,135.41666666666666,-955.9166666666667,4938.333333333333,6292.2962962962965
2026-01-10 20:42:41.760,2565.5625,140.1875,-911.0625,4938.25,6292.5
2026-01-10 20:42:41.780,2605.875,144.95833333333331,-866.2083333333334,4938.166666666667,6292.7037037037035
2026-01-10 20:42:41.800,2646.1875,149.72916666666666,-821.3541666666667,4938.083333333333,6292.907407407408
2026-01-10 20:42:41.820,2686.5,154.5,-776.5,4938.0,6293.111111111111
2026-01-10 20:42:41.840,2726.8125,159.27083333333331,-731.6458333333335,4937.916666666667,6293.314814814815
2026-01-10 20:42:41.860,2767.125,164.04166666666666,-686.7916666666667,4937.833333333333,6293.518518518518
2026-01-10 20:42:41.880,2807.4375,168.8125,-641.9375,4937.75,6293.722222222223
2026-01-10 20:42:41.900,2847.75,173.58333333333331,-597.0833333333335,4937.666666666667,6293.925925925926
2026-01-10 20:42:41.920,2888.0625,178.35416666666666,-552.2291666666667,4937.583333333333,6294.12962962963
2026-01-10 20:42:41.940,2928.375,183.125,-507.375,4937.5,6294.333333333333
2026-01-10 20:42:41.960,2968.6875,187.89583333333331,-462.5208333333335,4937.416666666667,6294.537037037037
2026-01-10 20:42:41.980,3009.0,192.66666666666666,-417.66666666666674,4937.333333333333,6294.740740740741
2026-01-10 20:42:42.000,3049.3125,197.4375,-372.8125,4937.25,6294.944444444444
2026-01-10 20:42:42.020,3089.625,202.20833333333331,-327.9583333333335,4937.166666666667,6295.148148148148
2026-01-10 20:42:42.040,3129.9375,206.97916666666666,-283.10416666666674,4937.083333333333,6295.351851851852
2026-01-10 20:42:42.060,3170.25,211.75,-238.25,4937.0,6295.555555555556
2026-01-10 20:42:42.080,3210.5625,216.52083333333331,-193.39583333333348,4936.916666666667,6295.759259259259
2026-01-10 20:42:42.100,3250.875,221.29166666666666,-148.54166666666674,4936.833333333333,6295.962962962963
2026-01-10 20:42:42.120,3291.1875,226.0625,-103.6875,4936.75,6296.166666666667
2026-01-10 20:42:42.140,3331.5,230.83333333333331,-58.833333333333485,4936.666666666667,6296.37037037037
2026-01-10 20:42:42.160,3371.8125,235.60416666666666,-13.979166666666742,4936.583333333333,6296.574074074074
2026-01-10 20:42:42.180,3412.125,240.375,30.875,4936.5,6296.777777777777
2026-01-10 20:42:42.200,3452.4375,245.14583333333331,75.72916666666652,4936.416666666667,6296.981481481482
2026-01-10 20:42:42.220,3492.75,249.91666666666666,120.58333333333326,4936.333333333333,6297.185185185185
2026-01-10 20:42:42.240,3533.0625,254.6875,165.4375,4936.25,6297.388888888889
2026-01-10 20:42:42.260,3573.375,259.4583333333333,210.29166666666652,4936.166666666667,6297.592592592592
2026-01-10 20:42:42.280,3613.6875,264.22916666666663,255.14583333333303,4936.083333333333,6297.7962962962965
2026-01-10 20:42:42.300,3654.0,269.0,300.0,4936.0,6298.0
2026-01-10 20:42:42.320,3654.3333333333335,225.10416666666666,300.5833333333333,4935.6875,6297.791666666667
2026-01-10 20:42:42.340,3654.6666666666665,181.20833333333331,301.1666666666667,4935.375,6297.583333333333
2026-01-10 20:42:42.360,3655.0,137.3125,301.75,4935.0625,6297.375
2026-01-10 20:42:42.380,3655.3333333333335,93.41666666666666,302.3333333333333,4934.75,6297.166666666667
2026-01-10 20:42:42.400,3655.6666666666665,49.520833333333314,302.9166666666667,4934.4375,6296.958333333333
2026-01-10 20:42:42.420,3656.0,5.625,303.5,4934.125,6296.75
2026-01-10 20:42:42.440,3656.3333333333335,-38.27083333333337,304.0833333333333,4933.8125,6296.541666666667
2026-01-10 20:42:42.460,3656.6666666666665,-82.16666666666669,304.6666666666667,4933.5,6296.333333333333
2026-01-10 20:42:42.480,3657.0,-126.0625,305.25,4933.1875,6296.125
2026-01-10 20:42:42.500,3657.3333333333335,-169.95833333333337,305.8333333333333,4932.875,6295.916666666667
2026-01-10 20:42:42.520,3657.6666666666665,-213.85416666666669,306.4166666666667,4932.5625,6295.708333333333
2026-01-10 20:42:42.540,3658.0,-257.75,307.0,4932.25,6295.5
2026-01-10 20:42:42.560,3658.3333333333335,-301.64583333333337,307.5833333333333,4931.9375,6295.291666666667
2026-01-10 20:42:42.580,3658.6666666666665,-345.54166666666674,308.1666666666667,4931.625,6295.083333333333
2026-01-10 20:42:42.600,3659.0,-389.4375,308.75,4931.3125,6294.875
2026-01-10 20:42:42.620,3659.3333333333335,-433.33333333333337,309.3333333333333,4931.0,6294.666666666667
2026-01-10 20:42:42.640,3659.6666666666665,-477.22916666666674,309.9166666666667,4930.6875,6294.458333333333
2026-01-10 20:42:42.660,3660.0,-521.125,310.5,4930.375,6294.25
2026-01-10 20:42:42.680,3660.3333333333335,-565.0208333333334,311.0833333333333,4930.0625,6294.041666666667
2026-01-10 20:42:42.700,3660.6666666666665,-608.9166666666667,311.6666666666667,4929.75,6293.833333333333
2026-01-10 20:42:42.720,3661.0,-652.8125,312.25,4929.4375,6293.625
2026-01-10 20:42:42.740,3661.3333333333335,-696.7083333333334,312.8333333333333,4929.125,6293.416666666667
2026-01-10 20:42:42.760,3661.6666666666665,-740.6041666666667,313.4166666666667,4928.8125,6293.208333333333
2026-01-10 20:42:42.780,3662.0,-784.5,314.0,4928.5,6293.0
2026-01-10 20:42:42.800,3662.3333333333335,-828.3958333333335,314.5833333333333,4928.1875,6292.791666666667
2026-01-10 20:42:42.820,3662.6666666666665,-872.2916666666667,315.1666666666667,4927.875,6292.583333333333
2026-01-10 20:42:42.840,3663.0,-916.1875,315.75,4927.5625,6292.375
2026-01-10 20:42:42.860,3663.3333333333335,-960.0833333333335,316.3333333333333,4927.25,6292.166666666667
2026-01-10 20:42:42.880,3663.6666666666665,-1003.9791666666667,316.9166666666667,4926.9375,6291.958333333333
2026-01-10 20:42:42.900,3664.0,-1047.875,317.5,4926.625,6291.75
2026-01-10 20:42:42.920,3664.3333333333335,-1091.7708333333335,318.0833333333333,4926.3125,6291.541666666667
2026-01-10 20:42:42.940,3664.6666666666665,-1135.6666666666667,318.6666666666667,4926.0,6291.333333333333
2026-01-10 20:42:42.960,3665.0,-1179.5625,319.25,4925.6875,6291.125
2026-01-10 20:42:42.980,3665.3333333333335,-1223.4583333333335,319.8333333333333,4925.375,6290.916666666667
2026-01-10 20:42:43.000,3665.6666666666665,-1267.3541666666667,320.4166666666667,4925.0625,6290.708333333333
2026-01-10 20:42:43.020,3666.0,-1311.25,321.0,4924.75,6290.5
2026-01-10 20:42:43.040,3666.3333333333335,-1355.1458333333335,321.5833333333333,4924.4375,6290.291666666667
2026-01-10 20:42:43.060,3666.6666666666665,-1399.0416666666667,322.1666666666667,4924.125,6290.083333333333
2026-01-10 20:42:43.080,3667.0,-1442.9375,322.75,4923.8125,6289.875
2026-01-10 20:42:43.100,3667.3333333333335,-1486.8333333333335,323.3333333333333,4923.5,6289.666666666667
2026-01-10 20:42:43.120,3667.6666666666665,-1530.7291666666667,323.9166666666667,4923.1875,6289.458333333333
2026-01-10 20:42:43.140,3668.0,-1574.625,324.5,4922.875,6289.25
2026-01-10 20:42:43.160,3668.3333333333335,-1618.5208333333335,325.0833333333333,4922.5625,6289.041666666667
2026-01-10 20:42:43.180,3668.6666666666665,-1662.4166666666667,325.6666666666667,4922.25,6288.833333333333
2026-01-10 20:42:43.200,3669.0,-1706.3125,326.25,4921.9375,6288.625
2026-01-10 20:42:43.220,3669.3333333333335,-1750.2083333333335,326.8333333333333,4921.625,6288.416666666667
2026-01-10 20:42:43.240,3669.6666666666665,-1794.104166666667,327.4166666666667,4921.3125,6288.208333333333
2026-01-10 20:42:43.260,3670.0,-1838.0,328.0,4921.0,6288.0
2026-01-10 20:42:43.280,3625.0833333333335,-1838.6875,328.5208333333333,4921.416666666667,6288.041666666667
2026-01-10 20:42:43.300,3580.1666666666665,-1839.375,329.0416666666667,4921.833333333333,6288.083333333333
2026-01-10 20:42:43.320,3535.25,-1840.0625,329.5625,4922.25,6288.125
2026-01-10 20:42:43.340,3490.3333333333335,-1840.75,330.0833333333333,4922.666666666667,6288.166666666667
2026-01-10 20:42:43.360,3445.4166666666665,-1841.4375,330.6041666666667,4923.083333333333,6288.208333333333
2026-01-10 20:42:43.380,3400.5,-1842.125,331.125,4923.5,6288.25
2026-01-10 20:42:43.400,3355.5833333333335,-1842.8125,331.6458333333333,4923.916666666667,6288.291666666667
2026-01-10 20:42:43.420,3310.6666666666665,-1843.5,332.1666666666667,4924.333333333333,6288.333333333333
2026-01-10 20:42:43.440,3265.75,-1844.1875,332.6875,4924.75,6288.375
2026-01-10 20:42:43.460,3220.8333333333335,-1844.875,333.2083333333333,4925.166666666667,6288.416666666667
2026-01-10 20:42:43.480,3175.9166666666665,-1845.5625,333.7291666666667,4925.583333333333,6288.458333333333
2026-01-10 20:42:43.500,3131.0,-1846.25,334.25,4926.0,6288.5
2026-01-10 20:42:43.520,3086.0833333333335,-1846.9375,334.7708333333333,4926.416666666667,6288.541666666667
2026-01-10 20:42:43.540,3041.166666666667,-1847.625,335.2916666666667,4926.833333333333,6288.583333333333
2026-01-10 20:42:43.560,2996.25,-1848.3125,335.8125,4927.25,6288.625
2026-01-10 20:42:43.580,2951.3333333333335,-1849.0,336.3333333333333,4927.666666666667,6288.666666666667
2026-01-10 20:42:43.600,2906.416666666667,-1849.6875,336.8541666666667,4928.083333333333,6288.708333333333
2026-01-10 20:42:43.620,2861.5,-1850.375,337.375,4928.5,6288.75
2026-01-10 20:42:43.640,2816.5833333333335,-1851.0625,337.8958333333333,4928.916666666667,6288.791666666667
2026-01-10 20:42:43.660,2771.666666666667,-1851.75,338.4166666666667,4929.333333333333,6288.833333333333
2026-01-10 20:42:43.680,2726.75,-1852.4375,338.9375,4929.75,6288.875
2026-01-10 20:42:43.700,2681.8333333333335,-1853.125,339.4583333333333,4930.166666666667,6288.916666666667
2026-01-10 20:42:43.720,2636.916666666667,-1853.8125,339.9791666666667,4930.583333333333,6288.958333333333
2026-01-10 20:42:43.740,2592.0,-1854.5,340.5,4931.0,6289.0
2026-01-10 20:42:43.760,2547.0833333333335,-1855.1875,341.0208333333333,4931.416666666667,6289.041666666667
2026-01-10 20:42:43.780,2502.166666666667,-1855.875,341.5416666666667,4931.833333333333,6289.083333333333
2026-01-10 20:42:43.800,2457.25,-1856.5625,342.0625,4932.25,6289.125
2026-01-10 20:42:43.820,2412.3333333333335,-1857.25,342.5833333333333,4932.666666666667,6289.166666666667
2026-01-10 20:42:43.840,2367.416666666667,-1857.9375,343.1041666666667,4933.083333333333,6289.208333333333
2026-01-10 20:42:43.860,2322.5,-1858.625,343.625,4933.5,6289.25
2026-01-10 20:42:43.880,2277.5833333333335,-1859.3125,344.1458333333333,4933.916666666667,6289.291666666667
2026-01-10 20:42:43.900,2232.666666666667,-1860.0,344.6666666666667,4934.333333333333,6289.333333333333
2026-01-10 20:42:43.920,2187.75,-1860.6875,345.1875,4934.75,6289.375
2026-01-10 20:42:43.940,2142.8333333333335,-1861.375,345.7083333333333,4935.166666666667,6289.416666666667
2026-01-10 20:42:43.960,2097.916666666667,-1862.0625,346.2291666666667,4935.583333333333,6289.458333333333
2026-01-10 20:42:43.980,2053.0,-1862.75,346.75,4936.0,6289.5
2026-01-10 20:42:44.000,2008.0833333333335,-1863.4375,347.2708333333333,4936.416666666667,6289.541666666667
2026-01-10 20:42:44.020,1963.1666666666667,-1864.125,347.7916666666667,4936.833333333333,6289.583333333333
2026-01-10 20:42:44.040,1918.25,-1864.8125,348.3125,4937.25,6289.625
2026-01-10 20:42:44.060,1873.3333333333335,-1865.5,348.8333333333333,4937.666666666667,6289.666666666667
2026-01-10 20:42:44.080,1828.4166666666667,-1866.1875,349.3541666666667,4938.083333333333,6289.708333333333
2026-01-10 20:42:44.100,1783.5,-1866.875,349.875,4938.5,6289.75
2026-01-10 20:42:44.120,1738.5833333333335,-1867.5625,350.3958333333333,4938.916666666667,6289.791666666667
2026-01-10 20:42:44.140,1693.6666666666667,-1868.25,350.9166666666667,4939.333333333333,6289.833333333333
2026-01-10 20:42:44.160,1648.75,-1868.9375,351.4375,4939.75,6289.875
2026-01-10 20:42:44.180,1603.8333333333335,-1869.625,351.9583333333333,4940.166666666667,6289.916666666667
2026-01-10 20:42:44.200,1558.916666666667,-1870.3125,352.4791666666667,4940.583333333333,6289.958333333333
2026-01-10 20:42:44.220,1514.0,-1871.0,353.0,4941.0,6290.0
2026-01-10 20:42:44.240,1549.9,-1870.6166666666666,352.28333333333336,4940.907407407408,6289.7037037037035
2026-01-10 20:42:44.260,1585.8,-1870.2333333333333,351.56666666666666,4940.814814814815,6289.407407407408
2026-01-10 20:42:44.280,1621.7,-1869.85,350.85,4940.722222222223,6289.111111111111
2026-01-10 20:42:44.300,1657.6,-1869.4666666666667,350.1333333333333,4940.62962962963,6288.814814814815
2026-01-10 20:42:44.320,1693.5,-1869.0833333333333,349.4166666666667,4940.537037037037,6288.518518518518
2026-01-10 20:42:44.340,1729.4,-1868.7,348.7,4940.444444444444,6288.222222222223
2026-01-10 20:42:44.360,1765.3,-1868.3166666666666,347.98333333333335,4940.351851851852,6287.925925925926
2026-01-10 20:42:44.380,1801.2,-1867.9333333333334,347.26666666666665,4940.259259259259,6287.62962962963
2026-01-10 20:42:44.400,1837.1,-1867.55,346.55,4940.166666666667,6287.333333333333
2026-01-10 20:42:44.420,1873.0,-1867.1666666666667,345.8333333333333,4940.074074074074,6287.037037037037
2026-01-10 20:42:44.440,1908.9,-1866.7833333333333,345.1166666666667,4939.981481481482,6286.740740740741
2026-01-10 20:42:44.460,1944.8,-1866.4,344.4,4939.888888888889,6286.444444444444
2026-01-10 20:42:44.480,1980.7,-1866.0166666666667,343.68333333333334,4939.7962962962965,6286.148148148148
2026-01-10 20:42:44.500,2016.6,-1865.6333333333334,342.96666666666664,4939.7037037037035,6285.851851851852
2026-01-10 20:42:44.520,2052.5,-1865.25,342.25,4939.611111111111,6285.555555555556
2026-01-10 20:42:44.540,2088.4,-1864.8666666666666,341.53333333333336,4939.518518518518,6285.259259259259
2026-01-10 20:42:44.560,2124.3,-1864.4833333333333,340.81666666666666,4939.425925925926,6284.962962962963
2026-01-10 20:42:44.580,2160.2,-1864.1,340.1,4939.333333333333,6284.666666666667
2026-01-10 20:42:44.600,2196.1,-1863.7166666666667,339.3833333333333,4939.240740740741,6284.37037037037
2026-01-10 20:42:44.620,2232.0,-1863.3333333333333,338.6666666666667,4939.148148148148,6284.074074074074
2026-01-10 20:42:44.640,2267.9,-1862.95,337.95,4939.055555555556,6283.777777777777
2026-01-10 20:42:44.660,2303.8,-1862.5666666666666,337.23333333333335,4938.962962962963,6283.481481481482
2026-01-10 20:42:44.680,2339.7,-1862.1833333333334,336.51666666666665,4938.87037037037,6283.185185185185
2026-01-10 20:42:44.700,2375.6,-1861.8,335.8,4938.777777777777,6282.888888888889
2026-01-10 20:42:44.720,2411.5,-1861.4166666666667,335.0833333333333,4938.685185185185,6282.592592592592
2026-01-10 20:42:44.740,2447.4,-1861.0333333333333,334.3666666666667,4938.592592592592,6282.2962962962965
2026-01-10 20:42:44.760,2483.3,-1860.65,333.65,4938.5,6282.0
2026-01-10 20:42:44.780,2519.2,-1860.2666666666667,332.93333333333334,4938.407407407408,6281.7037037037035
2026-01-10 20:42:44.800,2555.1,-1859.8833333333334,332.21666666666664,4938.314814814815,6281.407407407408
2026-01-10 20:42:44.820,2591.0,-1859.5,331.5,4938.222222222223,6281.111111111111
2026-01-10 20:42:44.840,2626.8999999999996,-1859.1166666666666,330.7833333333333,4938.12962962963,6280.814814814815
2026-01-10 20:42:44.860,2662.8,-1858.7333333333333,330.06666666666666,4938.037037037037,6280.518518518518
2026-01-10 20:42:44.880,2698.7,-1858.35,329.35,4937.944444444444,6280.222222222223
2026-01-10 20:42:44.900,2734.6,-1857.9666666666667,328.6333333333333,4937.851851851852,6279.925925925926
2026-01-10 20:42:44.920,2770.5,-1857.5833333333333,327.9166666666667,4937.759259259259,6279.62962962963
2026-01-10 20:42:44.940,2806.3999999999996,-1857.2,327.2,4937.666666666667,6279.333333333333
2026-01-10 20:42:44.960,2842.3,-1856.8166666666666,326.48333333333335,4937.574074074074,6279.037037037037
2026-01-10 20:42:44.980,2878.2,-1856.4333333333334,325.76666666666665,4937.481481481482,6278.740740740741
2026-01-10 20:42:45.000,2914.1,-1856.05,325.05,4937.388888888889,6278.444444444444
2026-01-10 20:42:45.020,2950.0,-1855.6666666666667,324.3333333333333,4937.2962962962965,6278.148148148148
2026-01-10 20:42:45.040,2985.8999999999996,-1855.2833333333333,323.6166666666667,4937.2037037037035,6277.851851851852
2026-01-10 20:42:45.060,3021.8,-1854.9,322.9,4937.111111111111,6277.555555555556
2026-01-10 20:42:45.080,3057.7,-1854.5166666666667,322.18333333333334,4937.018518518518,6277.259259259259
2026-01-10 20:42:45.100,3093.6,-1854.1333333333334,321.46666666666664,4936.925925925926,6276.962962962963
2026-01-10 20:42:45.120,3129.5,-1853.75,320.75,4936.833333333333,6276.666666666667
2026-01-10 20:42:45.140,3165.3999999999996,-1853.3666666666666,320.0333333333333,4936.740740740741,6276.37037037037
2026-01-10 20:42:45.160,3201.3,-1852.9833333333333,319.31666666666666,4936.648148148148,6276.074074074074
2026-01-10 20:42:45.180,3237.2,-1852.6,318.6,4936.555555555556,6275.777777777777
2026-01-10 20:42:45.200,3273.1,-1852.2166666666667,317.8833333333333,4936.462962962963,6275.481481481482
2026-01-10 20:42:45.220,3309.0,-1851.8333333333333,317.1666666666667,4936.37037037037,6275.185185185185
2026-01-10 20:42:45.240,3344.8999999999996,-1851.45,316.45,4936.277777777777,6274.888888888889
2026-01-10 20:42:45.260,3380.8,-1851.0666666666666,315.73333333333335,4936.185185185185,6274.592592592592
2026-01-10 20:42:45.280,3416.7,-1850.6833333333334,315.01666666666665,4936.092592592592,6274.2962962962965
2026-01-10 20:42:45.300,3452.6,-1850.3,314.3,4936.0,6274.0
2026-01-10 20:42:45.320,3488.5,-1849.9166666666667,313.5833333333333,4936.1875,6274.375
2026-01-10 20:42:45.340,3524.3999999999996,-1849.5333333333333,312.8666666666667,4936.375,6274.75
2026-01-10 20:42:45.360,3560.3,-1849.15,312.15,4936.5625,6275.125
2026-01-10 20:42:45.380,3596.2,-1848.7666666666667,311.43333333333334,4936.75,6275.5
2026-01-10 20:42:45.400,3632.1,-1848.3833333333334,310.7166666666667,4936.9375,6275.875
2026-01-10 20:42:45.420,3668.0,-1848.0,310.0,4937.125,6276.25
2026-01-10 20:42:45.440,3628.425925925926,-1776.4814814814815,270.14814814814815,4937.3125,6276.625
2026-01-10 20:42:45.460,3588.8518518518517,-1704.962962962963,230.2962962962963,4937.5,6277.0
2026-01-10 20:42:45.480,3549.277777777778,-1633.4444444444443,190.44444444444443,4937.6875,6277.375
2026-01-10 20:42:45.500,3509.7037037037035,-1561.9259259259259,150.59259259259258,4937.875,6277.75
2026-01-10 20:42:45.520,3470.1296296296296,-1490.4074074074074,110.74074074074073,4938.0625,6278.125
2026-01-10 20:42:45.540,3430.5555555555557,-1418.888888888889,70.88888888888886,4938.25,6278.5
2026-01-10 20:42:45.560,3390.9814814814813,-1347.3703703703704,31.03703703703701,4938.4375,6278.875
2026-01-10 20:42:45.580,3351.4074074074074,-1275.8518518518517,-8.814814814814838,4938.625,6279.25
2026-01-10 20:42:45.600,3311.8333333333335,-1204.3333333333335,-48.666666666666686,4938.8125,6279.625
2026-01-10 20:42:45.620,3272.259259259259,-1132.8148148148148,-88.51851851851853,4939.0,6280.0
2026-01-10 20:42:45.640,3232.685185185185,-1061.2962962962963,-128.37037037037038,4939.1875,6280.375
2026-01-10 20:42:45.660,3193.1111111111113,-989.7777777777778,-168.22222222222229,4939.375,6280.75
2026-01-10 20:42:45.680,3153.537037037037,-918.2592592592592,-208.07407407407413,4939.5625,6281.125
2026-01-10 20:42:45.700,3113.962962962963,-846.7407407407408,-247.92592592592598,4939.75,6281.5
2026-01-10 20:42:45.720,3074.3888888888887,-775.2222222222222,-287.7777777777778,4939.9375,6281.875
2026-01-10 20:42:45.740,3034.814814814815,-703.7037037037037,-327.6296296296297,4940.125,6282.25
2026-01-10 20:42:45.760,2995.240740740741,-632.1851851851852,-367.4814814814815,4940.3125,6282.625
2026-01-10 20:42:45.780,2955.6666666666665,-560.6666666666667,-407.33333333333337,4940.5,6283.0
2026-01-10 20:42:45.800,2916.0925925925926,-489.14814814814804,-447.1851851851852,4940.6875,6283.375
2026-01-10 20:42:45.820,2876.5185185185182,-417.62962962962956,-487.03703703703707,4940.875,6283.75
2026-01-10 20:42:45.840,2836.9444444444443,-346.1111111111111,-526.8888888888889,4941.0625,6284.125
2026-01-10 20:42:45.860,2797.3703703703704,-274.5925925925926,-566.7407407407408,4941.25,6284.5
2026-01-10 20:42:45.880,2757.7962962962965,-203.07407407407413,-606.5925925925926,4941.4375,6284.875
2026-01-10 20:42:45.900,2718.222222222222,-131.55555555555566,-646.4444444444446,4941.625,6285.25
2026-01-10 20:42:45.920,2678.648148148148,-60.03703703703695,-686.2962962962964,4941.8125,6285.625
2026-01-10 20:42:45.940,2639.074074074074,11.481481481481524,-726.1481481481483,4942.0,6286.0
2026-01-10 20:42:45.960,2599.5,83.0,-766.0,4942.1875,6286.375
2026-01-10 20:42:45.980,2559.925925925926,154.51851851851848,-805.851851851852,4942.375,6286.75
2026-01-10 20:42:46.000,2520.3518518518517,226.03703703703695,-845.7037037037037,4942.5625,6287.125
2026-01-10 20:42:46.020,2480.777777777778,297.55555555555566,-885.5555555555557,4942.75,6287.5
2026-01-10 20:42:46.040,2441.2037037037035,369.0740740740739,-925.4074074074074,4942.9375,6287.875
2026-01-10 20:42:46.060,2401.6296296296296,440.5925925925926,-965.2592592592594,4943.125,6288.25
2026-01-10 20:42:46.080,2362.0555555555557,512.1111111111113,-1005.1111111111113,4943.3125,6288.625
2026-01-10 20:42:46.100,2322.4814814814813,583.6296296296296,-1044.962962962963,4943.5,6289.0
2026-01-10 20:42:46.120,2282.9074074074074,655.1481481481483,-1084.814814814815,4943.6875,6289.375
2026-01-10 20:42:46.140,2243.333333333333,726.6666666666665,-1124.6666666666667,4943.875,6289.75
2026-01-10 20:42:46.160,2203.759259259259,798.1851851851852,-1164.5185185185187,4944.0625,6290.125
2026-01-10 20:42:46.180,2164.185185185185,869.7037037037039,-1204.3703703703704,4944.25,6290.5
2026-01-10 20:42:46.200,2124.6111111111113,941.2222222222222,-1244.2222222222224,4944.4375,6290.875
2026-01-10 20:42:46.220,2085.037037037037,1012.7407407407409,-1284.0740740740741,4944.625,6291.25
2026-01-10 20:42:46.240,2045.4629629629628,1084.2592592592591,-1323.925925925926,4944.8125,6291.625
2026-01-10 20:42:46.260,2005.8888888888887,1155.7777777777778,-1363.7777777777778,4945.0,6292.0
2026-01-10 20:42:46.280,1966.3148148148148,1227.2962962962965,-1403.6296296296298,4945.8125,6291.291666666667
2026-01-10 20:42:46.300,1926.7407407407406,1298.8148148148148,-1443.4814814814815,4946.625,6290.583333333333
2026-01-10 20:42:46.320,1887.1666666666665,1370.3333333333335,-1483.3333333333335,4947.4375,6289.875
2026-01-10 20:42:46.340,1847.5925925925926,1441.8518518518517,-1523.1851851851852,4948.25,6289.166666666667
2026-01-10 20:42:46.360,1808.0185185185185,1513.3703703703704,-1563.0370370370372,4949.0625,6288.458333333333
2026-01-10 20:42:46.380,1768.4444444444443,1584.8888888888887,-1602.8888888888891,4949.875,6287.75
2026-01-10 20:42:46.400,1728.8703703703702,1656.4074074074074,-1642.7407407407409,4950.6875,6287.041666666667
2026-01-10 20:42:46.420,1689.296296296296,1727.925925925926,-1682.5925925925928,4951.5,6286.333333333333
2026-01-10 20:42:46.440,1649.7222222222222,1799.4444444444443,-1722.4444444444446,4952.3125,6285.625
2026-01-10 20:42:46.460,1610.1481481481478,1870.962962962963,-1762.2962962962965,4953.125,6284.916666666667
2026-01-10 20:42:46.480,1570.574074074074,1942.4814814814813,-1802.1481481481483,4953.9375,6284.208333333333
2026-01-10 20:42:46.500,1531.0,2014.0,-1842.0,4954.75,6283.5
2026-01-10 20:42:46.520,1529.8055555555557,2012.138888888889,-1843.138888888889,4955.5625,6282.791666666667
2026-01-10 20:42:46.540,1528.611111111111,2010.2777777777778,-1844.2777777777778,4956.375,6282.083333333333
2026-01-10 20:42:46.560,1527.4166666666667,2008.4166666666667,-1845.4166666666667,4957.1875,6281.375
2026-01-10 20:42:46.580,1526.2222222222222,2006.5555555555557,-1846.5555555555557,4958.0,6280.666666666667
2026-01-10 20:42:46.600,1525.0277777777778,2004.6944444444443,-1847.6944444444443,4958.8125,6279.958333333333
2026-01-10 20:42:46.620,1523.8333333333333,2002.8333333333333,-1848.8333333333333,4959.625,6279.25
2026-01-10 20:42:46.640,1522.638888888889,2000.9722222222222,-1849.9722222222222,4960.4375,6278.541666666667
2026-01-10 20:42:46.660,1521.4444444444443,1999.111111111111,-1851.111111111111,4961.25,6277.833333333333
2026-01-10 20:42:46.680,1520.25,1997.25,-1852.25,4962.0625,6277.125
2026-01-10 20:42:46.700,1519.0555555555557,1995.388888888889,-1853.388888888889,4962.875,6276.416666666667
2026-01-10 20:42:46.720,1517.861111111111,1993.5277777777778,-1854.5277777777778,4963.6875,6275.708333333333
2026-01-10 20:42:46.740,1516.6666666666667,1991.6666666666667,-1855.6666666666667,4964.5,6275.0
2026-01-10 20:42:46.760,1515.4722222222222,1989.8055555555557,-1856.8055555555557,4965.3125,6274.291666666667
2026-01-10 20:42:46.780,1514.2777777777778,1987.9444444444443,-1857.9444444444443,4966.125,6273.583333333333
2026-01-10 20:42:46.800,1513.0833333333333,1986.0833333333333,-1859.0833333333333,4966.9375,6272.875
2026-01-10 20:42:46.820,1511.888888888889,1984.2222222222222,-1860.2222222222222,4967.75,6272.166666666667
2026-01-10 20:42:46.840,1510.6944444444443,1982.361111111111,-1861.361111111111,4968.5625,6271.458333333333
2026-01-10 20:42:46.860,1509.5,1980.5,-1862.5,4969.375,6270.75
2026-01-10 20:42:46.880,1508.3055555555557,1978.638888888889,-1863.638888888889,4970.1875,6270.041666666667
2026-01-10 20:42:46.900,1507.111111111111,1976.7777777777778,-1864.7777777777778,4971.0,6269.333333333333
2026-01-10 20:42:46.920,1505.9166666666667,1974.9166666666667,-1865.9166666666667,4971.8125,6268.625
2026-01-10 20:42:46.940,1504.7222222222222,1973.0555555555557,-1867.0555555555557,4972.625,6267.916666666667
