accX,accY,accZ
1676.0,-1881.0,262.0
1723.3023255813953,-1834.5116279069766,263.3720930232558
1770.6046511627908,-1788.0232558139535,264.74418604651163
1817.906976744186,-1741.5348837209303,266.1162790697674
1865.2093023255813,-1695.046511627907,267.48837209302326
1912.5116279069766,-1648.5581395348836,268.86046511627904
1959.8139534883721,-1602.0697674418604,270.2325581395349
2007.1162790697674,-1555.5813953488373,271.6046511627907
2054.4186046511627,-1509.093023255814,272.9767441860465
2101.720930232558,-1462.6046511627906,274.3488372093023
2149.0232558139533,-1416.1162790697674,275.72093023255815
2196.3255813953488,-1369.6279069767443,277.09302325581393
2243.6279069767443,-1323.139534883721,278.4651162790698
2290.9302325581393,-1276.6511627906975,279.83720930232556
2338.232558139535,-1230.1627906976744,281.2093023255814
2385.5348837209303,-1183.6744186046512,282.5813953488372
2432.8372093023254,-1137.1860465116279,283.95348837209303
2480.139534883721,-1090.6976744186045,285.3255813953488
2527.4418604651164,-1044.2093023255813,286.69767441860466
2574.7441860465115,-997.7209302325581,288.06976744186045
2622.046511627907,-951.2325581395348,289.4418604651163
2669.3488372093025,-904.7441860465116,290.8139534883721
2716.6511627906975,-858.2558139534883,292.1860465116279
2763.953488372093,-811.7674418604652,293.5581395348837
2811.2558139534885,-765.2790697674418,294.93023255813955
2858.5581395348836,-718.7906976744184,296.30232558139534
2905.860465116279,-672.3023255813953,297.6744186046512
2953.1627906976746,-625.8139534883721,299.04651162790697
3000.4651162790697,-579.3255813953488,300.4186046511628
3047.767441860465,-532.8372093023254,301.7906976744186
3095.0697674418607,-486.34883720930225,303.16279069767444
3142.3720930232557,-439.8604651162791,304.5348837209302
3189.6744186046512,-393.37209302325573,305.90697674418607
3236.9767441860467,-346.88372093023236,307.27906976744185
3284.279069767442,-300.3953488372092,308.6511627906977
3331.5813953488373,-253.90697674418607,310.0232558139535
3378.883720930233,-207.4186046511627,311.3953488372093
3426.186046511628,-160.93023255813932,312.7674418604651
3473.4883720930234,-114.44186046511618,314.1395348837209
3520.790697674419,-67.95348837209303,315.51162790697674
3568.093023255814,-21.46511627906966,316.8837209302326
3615.3953488372094,25.02325581395371,318.25581395348837
3662.697674418605,71.51162790697686,319.62790697674416
3710.0,118.0,321.0
3670.08,78.44,320.62
3630.16,38.879999999999995,320.24
3590.24,-0.6800000000000068,319.86
3550.32,-40.24000000000001,319.48
3510.4,-79.80000000000001,319.1
3470.48,-119.36000000000001,318.72
3430.56,-158.92000000000002,318.34
3390.64,-198.48000000000002,317.96
3350.72,-238.04000000000002,317.58
3310.8,-277.6,317.2
3270.88,-317.16,316.82
3230.96,-356.72,316.44
3191.04,-396.28,316.06
3151.12,-435.84000000000003,315.68
3111.2,-475.4000000000001,315.3
3071.2799999999997,-514.96,314.92
3031.36,-554.52,314.54
2991.44,-594.08,314.16
2951.52,-633.6400000000001,313.78
2911.6,-673.2,313.4
2871.68,-712.76,313.02
2831.76,-752.32,312.64
2791.84,-791.8800000000001,312.26
2751.92,-831.44,311.88
2712.0,-871.0,311.5
2672.08,-910.56,311.12
2632.16,-950.1200000000001,310.74
2592.24,-989.6800000000001,310.36
2552.3199999999997,-1029.24,309.98
2512.3999999999996,-1068.8000000000002,309.6
2472.48,-1108.3600000000001,309.22
2432.56,-1147.92,308.84
2392.64,-1187.48,308.46
2352.7200000000003,-1227.04,308.08
2312.8,-1266.6000000000001,307.7
2272.88,-1306.16,307.32
2232.96,-1345.72,306.94
2193.04,-1385.2800000000002,306.56
2153.12,-1424.8400000000001,306.18
2113.2,-1464.4,305.8
2073.2799999999997,-1503.96,305.42
2033.36,-1543.52,305.04
1993.4399999999998,-1583.0800000000002,304.66
1953.52,-1622.64,304.28
1913.6,-1662.2,303.9
1873.6799999999998,-1701.7600000000002,303.52
1833.76,-1741.3200000000002,303.14
1793.84,-1780.88,302.76
1753.9199999999998,-1820.44,302.38
1714.0,-1860.0,302.0
1713.5098039215686,-1860.1568627450981,302.27450980392155
1713.0196078431372,-1860.313725490196,302.54901960784315
1712.5294117647059,-1860.4705882352941,302.8235294117647
1712.0392156862745,-1860.6274509803923,303.0980392156863
1711.549019607843,-1860.7843137254902,303.37254901960785
1711.0588235294117,-1860.9411764705883,303.6470588235294
1710.5686274509803,-1861.0980392156862,303.921568627451
1710.078431372549,-1861.2549019607843,304.19607843137254
1709.5882352941176,-1861.4117647058824,304.47058823529414
1709.0980392156862,-1861.5686274509803,304.7450980392157
1708.6078431372548,-1861.7254901960785,305.01960784313724
1708.1176470588234,-1861.8823529411766,305.29411764705884
1707.6274509803923,-1862.0392156862745,305.5686274509804
1707.137254901961,-1862.1960784313726,305.843137254902
1706.6470588235295,-1862.3529411764705,306.11764705882354
1706.1568627450981,-1862.5098039215686,306.3921568627451
1705.6666666666667,-1862.6666666666667,306.6666666666667
1705.1764705882354,-1862.8235294117646,306.94117647058823
1704.686274509804,-1862.9803921568628,307.2156862745098
1704.1960784313726,-1863.137254901961,307.4901960784314
1703.7058823529412,-1863.2941176470588,307.7647058823529
1703.2156862745098,-1863.450980392157,308.03921568627453
1702.7254901960785,-1863.6078431372548,308.3137254901961
1702.235294117647,-1863.764705882353,308.5882352941176
1701.7450980392157,-1863.921568627451,308.8627450980392
1701.2549019607843,-1864.078431372549,309.1372549019608
1700.764705882353,-1864.235294117647,309.4117647058824
1700.2745098039215,-1864.3921568627452,309.6862745098039
1699.7843137254902,-1864.549019607843,309.96078431372547
1699.2941176470588,-1864.7058823529412,310.2352941176471
1698.8039215686274,-1864.862745098039,310.5098039215686
1698.313725490196,-1865.0196078431372,310.7843137254902
1697.8235294117646,-1865.1764705882354,311.05882352941177
1697.3333333333333,-1865.3333333333333,311.3333333333333
1696.8431372549019,-1865.4901960784314,311.6078431372549
1696.3529411764705,-1865.6470588235295,311.88235294117646
1695.862745098039,-1865.8039215686274,312.15686274509807
1695.372549019608,-1865.9607843137255,312.4313725490196
1694.8823529411766,-1866.1176470588234,312.70588235294116
1694.3921568627452,-1866.2745098039215,312.98039215686276
1693.9019607843138,-1866.4313725490197,313.2549019607843
1693.4117647058824,-1866.5882352941176,313.52941176470586
1692.921568627451,-1866.7450980392157,313.80392156862746
1692.4313725490197,-1866.9019607843138,314.078431372549
1691.9411764705883,-1867.0588235294117,314.3529411764706
1691.450980392157,-1867.2156862745098,314.62745098039215
1690.9607843137255,-1867.3725490196077,314.9019607843137
1690.4705882352941,-1867.5294117647059,315.1764705882353
1689.9803921568628,-1867.686274509804,315.45098039215685
1689.4901960784314,-1867.8431372549019,315.72549019607845
1689.0,-1868.0,316.0
1729.469387755102,-1868.142857142857,315.6938775510204
1769.938775510204,-1868.2857142857142,315.38775510204084
1810.408163265306,-1868.4285714285713,315.0816326530612
1850.8775510204082,-1868.5714285714287,314.7755102040816
1891.3469387755101,-1868.7142857142858,314.46938775510205
1931.8163265306123,-1868.857142857143,314.16326530612247
1972.2857142857142,-1869.0,313.85714285714283
2012.7551020408164,-1869.142857142857,313.55102040816325
2053.2244897959185,-1869.2857142857142,313.2448979591837
2093.6938775510203,-1869.4285714285713,312.9387755102041
2134.1632653061224,-1869.5714285714287,312.6326530612245
2174.6326530612246,-1869.7142857142858,312.3265306122449
2215.1020408163267,-1869.857142857143,312.0204081632653
2255.5714285714284,-1870.0,311.7142857142857
2296.0408163265306,-1870.142857142857,311.40816326530614
2336.5102040816328,-1870.2857142857142,311.1020408163265
2376.9795918367345,-1870.4285714285713,310.7959183673469
2417.4489795918366,-1870.5714285714287,310.48979591836735
2457.918367346939,-1870.7142857142858,310.18367346938777
2498.387755102041,-1870.857142857143,309.8775510204082
2538.857142857143,-1871.0,309.57142857142856
2579.326530612245,-1871.142857142857,309.265306122449
2619.795918367347,-1871.2857142857142,308.9591836734694
2660.265306122449,-1871.4285714285713,308.6530612244898
2700.734693877551,-1871.5714285714287,308.3469387755102
2741.204081632653,-1871.7142857142858,308.0408163265306
2781.673469387755,-1871.857142857143,307.734693877551
2822.142857142857,-1872.0,307.42857142857144
2862.6122448979595,-1872.142857142857,307.1224489795918
2903.081632653061,-1872.2857142857142,306.81632653061223
2943.5510204081634,-1872.4285714285713,306.51020408163265
2984.0204081632655,-1872.5714285714287,306.2040816326531
3024.4897959183672,-1872.7142857142858,305.8979591836735
3064.9591836734694,-1872.857142857143,305.59183673469386
3105.4285714285716,-1873.0,305.2857142857143
3145.8979591836733,-1873.142857142857,304.9795918367347
3186.3673469387754,-1873.2857142857142,304.6734693877551
3226.8367346938776,-1873.4285714285713,304.3673469387755
3267.3061224489793,-1873.5714285714287,304.0612244897959
3307.775510204082,-1873.7142857142858,303.7551020408163
3348.2448979591836,-1873.857142857143,303.44897959183675
3388.714285714286,-1874.0,303.14285714285717
3429.183673469388,-1874.142857142857,302.83673469387753
3469.6530612244896,-1874.2857142857142,302.53061224489795
3510.122448979592,-1874.4285714285713,302.2244897959184
3550.591836734694,-1874.5714285714287,301.9183673469388
3591.0612244897957,-1874.7142857142858,301.61224489795916
3631.530612244898,-1874.857142857143,301.3061224489796
3672.0,-1875.0,301.0
3672.32,-1874.56,300.78
3672.64,-1874.12,300.56
3672.96,-1873.68,300.34
3673.28,-1873.24,300.12
3673.6,-1872.8,299.9
3673.92,-1872.36,299.68
3674.24,-1871.92,299.46
3674.56,-1871.48,299.24
3674.88,-1871.04,299.02
3675.2,-1870.6,298.8
3675.52,-1870.16,298.58
3675.84,-1869.72,298.36
3676.16,-1869.28,298.14
3676.48,-1868.84,297.92
3676.8,-1868.4,297.7
3677.12,-1867.96,297.48
3677.44,-1867.52,297.26
3677.76,-1867.08,297.04
3678.08,-1866.64,296.82
3678.4,-1866.2,296.6
3678.72,-1865.76,296.38
3679.04,-1865.32,296.16
3679.36,-1864.88,295.94
3679.68,-1864.44,295.72
3680.0,-1864.0,295.5
3680.32,-1863.56,295.28
3680.64,-1863.12,295.06
3680.96,-1862.68,294.84
3681.28,-1862.24,294.62
3681.6,-1861.8,294.4
3681.92,-1861.36,294.18
3682.24,-1860.92,293.96
3682.56,-1860.48,293.74
3682.88,-1860.04,293.52
3683.2,-1859.6,293.3
3683.52,-1859.16,293.08
3683.84,-1858.72,292.86
3684.16,-1858.28,292.64
3684.48,-1857.84,292.42
3684.8,-1857.4,292.2
3685.12,-1856.96,291.98
3685.44,-1856.52,291.76
3685.76,-1856.08,291.54
3686.08,-1855.64,291.32
3686.4,-1855.2,291.1
3686.72,-1854.76,290.88
3687.04,-1854.32,290.66
3687.36,-1853.88,290.44
3687.68,-1853.44,290.22
3688.0,-1853.0,290.0
3649.274509803922,-1854.2549019607843,252.19607843137254
3610.549019607843,-1855.5098039215686,214.39215686274508
3571.823529411765,-1856.764705882353,176.58823529411765
3533.098039215686,-1858.0196078431372,138.7843137254902
3494.372549019608,-1859.2745098039215,100.98039215686273
3455.6470588235293,-1860.5294117647059,63.176470588235304
3416.921568627451,-1861.7843137254902,25.372549019607845
3378.1960784313724,-1863.0392156862745,-12.431372549019613
3339.470588235294,-1864.2941176470588,-50.23529411764707
3300.745098039216,-1865.549019607843,-88.03921568627453
3262.0196078431372,-1866.8039215686274,-125.84313725490199
3223.2941176470586,-1868.0588235294117,-163.6470588235294
3184.5686274509803,-1869.313725490196,-201.45098039215685
3145.843137254902,-1870.5686274509803,-239.2549019607843
3107.1176470588234,-1871.8235294117646,-277.0588235294118
3068.392156862745,-1873.078431372549,-314.8627450980392
3029.6666666666665,-1874.3333333333333,-352.66666666666663
2990.9411764705883,-1875.5882352941176,-390.47058823529414
2952.2156862745096,-1876.8431372549019,-428.27450980392155
2913.4901960784314,-1878.0980392156862,-466.07843137254906
2874.764705882353,-1879.3529411764705,-503.88235294117646
2836.0392156862745,-1880.6078431372548,-541.686274509804
2797.313725490196,-1881.862745098039,-579.4901960784314
2758.5882352941176,-1883.1176470588234,-617.2941176470588
2719.8627450980393,-1884.3725490196077,-655.0980392156863
2681.1372549019607,-1885.627450980392,-692.9019607843137
2642.4117647058824,-1886.8823529411766,-730.7058823529412
2603.686274509804,-1888.137254901961,-768.5098039215686
2564.9607843137255,-1889.3921568627452,-806.313725490196
2526.235294117647,-1890.6470588235295,-844.1176470588236
2487.5098039215686,-1891.9019607843138,-881.921568627451
2448.7843137254904,-1893.1568627450981,-919.7254901960785
2410.0588235294117,-1894.4117647058824,-957.5294117647059
2371.333333333333,-1895.6666666666667,-995.3333333333333
2332.607843137255,-1896.921568627451,-1033.137254901961
2293.8823529411766,-1898.1764705882354,-1070.9411764705883
2255.156862745098,-1899.4313725490197,-1108.7450980392157
2216.4313725490197,-1900.686274509804,-1146.549019607843
2177.7058823529414,-1901.9411764705883,-1184.3529411764707
2138.9803921568628,-1903.1960784313726,-1222.1568627450981
2100.254901960784,-1904.450980392157,-1259.9607843137255
2061.529411764706,-1905.7058823529412,-1297.764705882353
2022.8039215686274,-1906.9607843137255,-1335.5686274509803
1984.078431372549,-1908.2156862745098,-1373.372549019608
1945.3529411764705,-1909.4705882352941,-1411.1764705882354
1906.627450980392,-1910.7254901960785,-1448.9803921568628
1867.9019607843136,-1911.9803921568628,-1486.7843137254902
1829.1764705882351,-1913.235294117647,-1524.5882352941176
1790.450980392157,-1914.4901960784314,-1562.3921568627452
1751.7254901960785,-1915.7450980392157,-1600.1960784313726
1713.0,-1917.0,-1638.0
1756.5294117647059,-1840.686274509804,-1605.4117647058824
1800.0588235294117,-1764.372549019608,-1572.8235294117646
1843.5882352941176,-1688.0588235294117,-1540.235294117647
1887.1176470588234,-1611.7450980392157,-1507.6470588235295
1930.6470588235295,-1535.4313725490197,-1475.0588235294117
1974.1764705882354,-1459.1176470588234,-1442.4705882352941
2017.7058823529412,-1382.8039215686274,-1409.8823529411766
2061.235294117647,-1306.4901960784314,-1377.2941176470588
2104.764705882353,-1230.1764705882354,-1344.7058823529412
2148.294117647059,-1153.8627450980393,-1312.1176470588234
2191.823529411765,-1077.549019607843,-1279.5294117647059
2235.3529411764707,-1001.2352941176471,-1246.9411764705883
2278.8823529411766,-924.921568627451,-1214.3529411764707
2322.4117647058824,-848.6078431372548,-1181.764705882353
2365.9411764705883,-772.2941176470588,-1149.1764705882354
2409.470588235294,-695.9803921568628,-1116.5882352941176
2453.0,-619.6666666666667,-1084.0
2496.529411764706,-543.3529411764707,-1051.4117647058824
2540.0588235294117,-467.0392156862745,-1018.8235294117648
2583.5882352941176,-390.72549019607845,-986.2352941176471
2627.1176470588234,-314.41176470588243,-953.6470588235295
2670.6470588235297,-238.09803921568619,-921.0588235294118
2714.176470588235,-161.78431372549016,-888.4705882352941
2757.7058823529414,-85.47058823529414,-855.8823529411766
2801.235294117647,-9.156862745098124,-823.2941176470589
2844.764705882353,67.1568627450979,-790.7058823529412
2888.2941176470586,143.47058823529414,-758.1176470588235
2931.823529411765,219.7843137254904,-725.529411764706
2975.3529411764707,296.0980392156862,-692.9411764705883
3018.8823529411766,372.41176470588243,-660.3529411764706
3062.4117647058824,448.7254901960782,-627.764705882353
3105.9411764705883,525.0392156862745,-595.1764705882354
3149.470588235294,601.3529411764707,-562.5882352941178
3193.0,677.6666666666665,-530.0
3236.529411764706,753.9803921568628,-497.41176470588243
3280.0588235294117,830.2941176470586,-464.82352941176487
3323.588235294118,906.6078431372548,-432.2352941176471
3367.1176470588234,982.921568627451,-399.6470588235295
3410.6470588235297,1059.2352941176468,-367.05882352941194
3454.176470588235,1135.549019607843,-334.47058823529414
3497.7058823529414,1211.8627450980393,-301.8823529411766
3541.235294117647,1288.1764705882351,-269.294117647059
3584.764705882353,1364.4901960784314,-236.70588235294122
3628.294117647059,1440.8039215686276,-204.11764705882365
3671.823529411765,1517.1176470588234,-171.52941176470608
3715.3529411764707,1593.4313725490197,-138.9411764705883
3758.8823529411766,1669.7450980392155,-106.35294117647072
3802.4117647058824,1746.0588235294117,-73.76470588235316
3845.9411764705883,1822.372549019608,-41.17647058823536
3889.470588235294,1898.6862745098038,-8.588235294117794
3933.0,1975.0,24.0
3927.72,1898.26,29.36
3922.44,1821.52,34.72
3917.16,1744.78,40.08
3911.88,1668.04,45.44
3906.6,1591.3,50.8
3901.32,1514.56,56.160000000000004
3896.04,1437.8200000000002,61.52
3890.76,1361.08,66.88
3885.48,1284.3400000000001,72.24000000000001
3880.2,1207.6,77.6
3874.92,1130.8600000000001,82.96000000000001
3869.64,1054.1200000000001,88.32000000000001
3864.36,977.3800000000001,93.68
3859.08,900.6400000000001,99.04
3853.8,823.9000000000001,104.4
3848.52,747.1600000000001,109.76
3843.24,670.4200000000001,115.12
3837.96,593.6800000000001,120.48
3832.68,516.94,125.84
3827.4,440.20000000000005,131.2
3822.12,363.46000000000004,136.56
3816.84,286.72,141.92000000000002
3811.56,209.98000000000002,147.28
3806.28,133.24000000000024,152.64000000000001
3801.0,56.50000000000023,158.0
3795.72,-20.23999999999978,163.36
3790.44,-96.98000000000002,168.72
3785.16,-173.7199999999998,174.08
3779.88,-250.46000000000004,179.44
3774.6,-327.1999999999998,184.8
3769.32,-403.94000000000005,190.16
3764.04,-480.67999999999984,195.52
3758.76,-557.4199999999996,200.88000000000002
3753.48,-634.1599999999999,206.24
3748.2,-710.8999999999996,211.60000000000002
3742.92,-787.6399999999999,216.96
3737.64,-864.3799999999997,222.32000000000002
3732.36,-941.1199999999999,227.68
3727.08,-1017.8599999999997,233.04000000000002
3721.8,-1094.6,238.4
3716.52,-1171.3399999999997,243.76000000000002
3711.24,-1248.08,249.12
3705.96,-1324.8199999999997,254.48000000000002
3700.68,-1401.56,259.84000000000003
3695.4,-1478.2999999999997,265.20000000000005
3690.12,-1555.04,270.56
3684.84,-1631.7799999999997,275.92
3679.56,-1708.5199999999995,281.28000000000003
3674.2799999999997,-1785.2599999999998,286.64000000000004
3669.0,-1862.0,292.0
3628.6530612244896,-1863.0408163265306,293.40816326530614
3588.3061224489797,-1864.0816326530612,294.81632653061223
3547.9591836734694,-1865.1224489795918,296.2244897959184
3507.612244897959,-1866.1632653061224,297.6326530612245
3467.265306122449,-1867.204081632653,299.0408163265306
3426.918367346939,-1868.2448979591836,300.44897959183675
3386.5714285714284,-1869.2857142857142,301.85714285714283
3346.2244897959185,-1870.3265306122448,303.265306122449
3305.877551020408,-1871.3673469387754,304.6734693877551
3265.530612244898,-1872.408163265306,306.0816326530612
3225.183673469388,-1873.4489795918366,307.48979591836735
3184.8367346938776,-1874.4897959183672,308.8979591836735
3144.4897959183672,-1875.530612244898,310.3061224489796
3104.142857142857,-1876.5714285714287,311.7142857142857
3063.795918367347,-1877.6122448979593,313.1224489795918
3023.4489795918366,-1878.6530612244899,314.53061224489795
2983.1020408163267,-1879.6938775510205,315.9387755102041
2942.7551020408164,-1880.734693877551,317.3469387755102
2902.408163265306,-1881.7755102040817,318.7551020408163
2862.0612244897957,-1882.8163265306123,320.16326530612247
2821.714285714286,-1883.857142857143,321.57142857142856
2781.3673469387754,-1884.8979591836735,322.9795918367347
2741.0204081632655,-1885.938775510204,324.38775510204084
2700.673469387755,-1886.9795918367347,325.7959183673469
2660.326530612245,-1888.0204081632653,327.2040816326531
2619.9795918367345,-1889.061224489796,328.61224489795916
2579.6326530612246,-1890.1020408163265,330.0204081632653
2539.285714285714,-1891.142857142857,331.42857142857144
2498.9387755102043,-1892.1836734693877,332.83673469387753
2458.591836734694,-1893.2244897959183,334.2448979591837
2418.2448979591836,-1894.265306122449,335.6530612244898
2377.8979591836733,-1895.3061224489795,337.0612244897959
2337.5510204081634,-1896.3469387755101,338.46938775510205
2297.204081632653,-1897.3877551020407,339.8775510204082
2256.857142857143,-1898.4285714285713,341.2857142857143
2216.5102040816328,-1899.469387755102,342.6938775510204
2176.1632653061224,-1900.5102040816328,344.1020408163265
2135.816326530612,-1901.5510204081634,345.51020408163265
2095.469387755102,-1902.591836734694,346.9183673469388
2055.122448979592,-1903.6326530612246,348.3265306122449
2014.7755102040817,-1904.6734693877552,349.734693877551
1974.4285714285716,-1905.7142857142858,351.14285714285717
1934.0816326530612,-1906.7551020408164,352.55102040816325
1893.734693877551,-1907.795918367347,353.9591836734694
1853.387755102041,-1908.8367346938776,355.36734693877554
1813.0408163265306,-1909.8775510204082,356.7755102040816
1772.6938775510205,-1910.9183673469388,358.18367346938777
1732.3469387755104,-1911.9591836734694,359.59183673469386
1692.0,-1913.0,361.0
1730.3461538461538,-1911.7115384615386,360.8076923076923
1768.6923076923076,-1910.423076923077,360.61538461538464
1807.0384615384614,-1909.1346153846155,360.4230769230769
1845.3846153846155,-1907.8461538461538,360.2307692307692
1883.7307692307693,-1906.5576923076924,360.03846153846155
1922.076923076923,-1905.2692307692307,359.84615384615387
1960.423076923077,-1903.9807692307693,359.65384615384613
1998.7692307692307,-1902.6923076923076,359.46153846153845
2037.1153846153848,-1901.4038461538462,359.2692307692308
2075.4615384615386,-1900.1153846153845,359.0769230769231
2113.8076923076924,-1898.826923076923,358.88461538461536
2152.153846153846,-1897.5384615384614,358.6923076923077
2190.5,-1896.25,358.5
2228.846153846154,-1894.9615384615386,358.3076923076923
2267.1923076923076,-1893.673076923077,358.11538461538464
2305.5384615384614,-1892.3846153846155,357.9230769230769
2343.8846153846152,-1891.0961538461538,357.7307692307692
2382.2307692307695,-1889.8076923076924,357.53846153846155
2420.576923076923,-1888.5192307692307,357.34615384615387
2458.923076923077,-1887.2307692307693,357.15384615384613
2497.269230769231,-1885.9423076923076,356.96153846153845
2535.6153846153848,-1884.6538461538462,356.7692307692308
2573.9615384615386,-1883.3653846153845,356.5769230769231
2612.3076923076924,-1882.076923076923,356.38461538461536
2650.653846153846,-1880.7884615384614,356.1923076923077
2689.0,-1879.5,356.0
2727.346153846154,-1878.2115384615386,355.8076923076923
2765.6923076923076,-1876.923076923077,355.61538461538464
2804.038461538462,-1875.6346153846155,355.4230769230769
2842.3846153846152,-1874.3461538461538,355.2307692307692
2880.7307692307695,-1873.0576923076924,355.03846153846155
2919.076923076923,-1871.7692307692307,354.84615384615387
2957.423076923077,-1870.4807692307693,354.65384615384613
2995.7692307692305,-1869.1923076923076,354.46153846153845
3034.1153846153848,-1867.9038461538462,354.2692307692308
3072.4615384615386,-1866.6153846153845,354.0769230769231
3110.8076923076924,-1865.326923076923,353.88461538461536
3149.153846153846,-1864.0384615384614,353.6923076923077
3187.5,-1862.75,353.5
3225.846153846154,-1861.4615384615386,353.3076923076923
3264.1923076923076,-1860.173076923077,353.11538461538464
3302.538461538462,-1858.8846153846155,352.9230769230769
3340.8846153846152,-1857.5961538461538,352.7307692307692
3379.2307692307695,-1856.3076923076924,352.53846153846155
3417.576923076923,-1855.0192307692307,352.34615384615387
3455.923076923077,-1853.7307692307693,352.15384615384613
3494.2692307692305,-1852.4423076923076,351.96153846153845
3532.6153846153848,-1851.1538461538462,351.7692307692308
3570.9615384615386,-1849.8653846153845,351.5769230769231
3609.3076923076924,-1848.576923076923,351.38461538461536
3647.653846153846,-1847.2884615384614,351.1923076923077
3686.0,-1846.0,351.0
3644.7083333333335,-1805.0416666666667,350.5625
3603.4166666666665,-1764.0833333333333,350.125
3562.125,-1723.125,349.6875
3520.8333333333335,-1682.1666666666667,349.25
3479.5416666666665,-1641.2083333333333,348.8125
3438.25,-1600.25,348.375
3396.9583333333335,-1559.2916666666665,347.9375
3355.6666666666665,-1518.3333333333333,347.5
3314.375,-1477.375,347.0625
3273.0833333333335,-1436.4166666666665,346.625
3231.7916666666665,-1395.4583333333333,346.1875
3190.5,-1354.5,345.75
3149.2083333333335,-1313.5416666666665,345.3125
3107.916666666667,-1272.5833333333333,344.875
3066.625,-1231.625,344.4375
3025.3333333333335,-1190.6666666666665,344.0
2984.041666666667,-1149.7083333333333,343.5625
2942.75,-1108.75,343.125
2901.4583333333335,-1067.7916666666665,342.6875
2860.166666666667,-1026.8333333333333,342.25
2818.875,-985.875,341.8125
2777.5833333333335,-944.9166666666666,341.375
2736.291666666667,-903.9583333333333,340.9375
2695.0,-863.0,340.5
2653.7083333333335,-822.0416666666666,340.0625
2612.416666666667,-781.0833333333333,339.625
2571.125,-740.125,339.1875
2529.8333333333335,-699.1666666666665,338.75
2488.541666666667,-658.2083333333333,338.3125
2447.25,-617.25,337.875
2405.9583333333335,-576.2916666666665,337.4375
2364.666666666667,-535.3333333333333,337.0
2323.375,-494.375,336.5625
2282.0833333333335,-453.4166666666665,336.125
2240.791666666667,-412.45833333333326,335.6875
2199.5,-371.5,335.25
2158.2083333333335,-330.5416666666665,334.8125
2116.916666666667,-289.58333333333326,334.375
2075.625,-248.625,333.9375
2034.3333333333335,-207.66666666666652,333.5
1993.0416666666667,-166.70833333333326,333.0625
1951.75,-125.75,332.625
1910.4583333333335,-84.79166666666652,332.1875
1869.1666666666667,-43.83333333333326,331.75
1827.875,-2.875,331.3125
1786.5833333333335,38.083333333333485,330.875
1745.2916666666667,79.04166666666674,330.4375
1704.0,120.0,330.0
1740.6851851851852,82.87037037037038,330.01851851851853
1777.3703703703704,45.74074074074075,330.037037037037
1814.0555555555557,8.611111111111114,330.05555555555554
1850.7407407407406,-28.518518518518505,330.0740740740741
1887.4259259259259,-65.64814814814812,330.0925925925926
1924.111111111111,-102.77777777777777,330.1111111111111
1960.7962962962963,-139.9074074074074,330.1296296296296
1997.4814814814815,-177.037037037037,330.14814814814815
2034.1666666666665,-214.16666666666663,330.1666666666667
2070.8518518518517,-251.29629629629625,330.18518518518516
2107.537037037037,-288.42592592592587,330.2037037037037
2144.222222222222,-325.55555555555554,330.22222222222223
2180.9074074074074,-362.68518518518516,330.24074074074076
2217.5925925925926,-399.8148148148148,330.25925925925924
2254.277777777778,-436.94444444444434,330.27777777777777
2290.962962962963,-474.074074074074,330.2962962962963
2327.6481481481483,-511.2037037037037,330.31481481481484
2364.333333333333,-548.3333333333333,330.3333333333333
2401.0185185185182,-585.4629629629629,330.35185185185185
2437.7037037037035,-622.5925925925925,330.3703703703704
2474.3888888888887,-659.7222222222222,330.3888888888889
2511.074074074074,-696.8518518518517,330.4074074074074
2547.759259259259,-733.9814814814814,330.4259259259259
2584.4444444444443,-771.1111111111111,330.44444444444446
2621.1296296296296,-808.2407407407406,330.462962962963
2657.814814814815,-845.3703703703703,330.48148148148147
2694.5,-882.4999999999999,330.5
2731.185185185185,-919.6296296296296,330.51851851851853
2767.8703703703704,-956.7592592592591,330.537037037037
2804.5555555555557,-993.8888888888887,330.55555555555554
2841.240740740741,-1031.0185185185185,330.5740740740741
2877.925925925926,-1068.148148148148,330.5925925925926
2914.6111111111113,-1105.2777777777776,330.6111111111111
2951.2962962962965,-1142.4074074074074,330.6296296296296
2987.9814814814818,-1179.537037037037,330.64814814814815
3024.6666666666665,-1216.6666666666665,330.6666666666667
3061.3518518518517,-1253.796296296296,330.68518518518516
3098.037037037037,-1290.9259259259259,330.7037037037037
3134.722222222222,-1328.0555555555554,330.72222222222223
3171.4074074074074,-1365.185185185185,330.74074074074076
3208.0925925925926,-1402.3148148148148,330.75925925925924
3244.7777777777774,-1439.4444444444443,330.77777777777777
3281.4629629629626,-1476.574074074074,330.7962962962963
3318.148148148148,-1513.7037037037035,330.81481481481484
3354.833333333333,-1550.8333333333333,330.8333333333333
3391.5185185185182,-1587.9629629629628,330.85185185185185
3428.2037037037035,-1625.0925925925924,330.8703703703704
3464.8888888888887,-1662.2222222222222,330.8888888888889
3501.574074074074,-1699.3518518518517,330.9074074074074
3538.259259259259,-1736.4814814814813,330.9259259259259
3574.9444444444443,-1773.6111111111109,330.94444444444446
3611.6296296296296,-1810.7407407407406,330.962962962963
3648.314814814815,-1847.8703703703702,330.98148148148147
3685.0,-1885.0,331.0
3643.8333333333335,-1884.4166666666667,285.7708333333333
3602.6666666666665,-1883.8333333333333,240.54166666666669
3561.5,-1883.25,195.3125
3520.3333333333335,-1882.6666666666667,150.08333333333334
3479.1666666666665,-1882.0833333333333,104.85416666666669
3438.0,-1881.5,59.625
3396.8333333333335,-1880.9166666666667,14.395833333333371
3355.6666666666665,-1880.3333333333333,-30.833333333333314
3314.5,-1879.75,-76.0625
3273.3333333333335,-1879.1666666666667,-121.29166666666663
3232.1666666666665,-1878.5833333333333,-166.52083333333331
3191.0,-1878.0,-211.75
3149.8333333333335,-1877.4166666666667,-256.97916666666663
3108.666666666667,-1876.8333333333333,-302.20833333333326
3067.5,-1876.25,-347.4375
3026.3333333333335,-1875.6666666666667,-392.66666666666663
2985.166666666667,-1875.0833333333333,-437.89583333333326
2944.0,-1874.5,-483.125
2902.8333333333335,-1873.9166666666667,-528.3541666666666
2861.666666666667,-1873.3333333333333,-573.5833333333333
2820.5,-1872.75,-618.8125
2779.3333333333335,-1872.1666666666667,-664.0416666666666
2738.166666666667,-1871.5833333333333,-709.2708333333333
2697.0,-1871.0,-754.5
2655.8333333333335,-1870.4166666666667,-799.7291666666665
2614.666666666667,-1869.8333333333333,-844.9583333333333
2573.5,-1869.25,-890.1875
2532.3333333333335,-1868.6666666666667,-935.4166666666665
2491.166666666667,-1868.0833333333333,-980.6458333333333
2450.0,-1867.5,-1025.875
2408.8333333333335,-1866.9166666666667,-1071.1041666666665
2367.666666666667,-1866.3333333333333,-1116.3333333333333
2326.5,-1865.75,-1161.5625
2285.3333333333335,-1865.1666666666667,-1206.7916666666665
2244.166666666667,-1864.5833333333333,-1252.0208333333333
2203.0,-1864.0,-1297.25
2161.8333333333335,-1863.4166666666667,-1342.4791666666665
2120.666666666667,-1862.8333333333333,-1387.7083333333333
2079.5,-1862.25,-1432.9375
2038.3333333333335,-1861.6666666666667,-1478.1666666666665
1997.1666666666667,-1861.0833333333333,-1523.3958333333333
1956.0,-1860.5,-1568.625
1914.8333333333335,-1859.9166666666667,-1613.8541666666665
1873.6666666666667,-1859.3333333333333,-1659.0833333333333
1832.5,-1858.75,-1704.3125
1791.3333333333335,-1858.1666666666667,-1749.5416666666665
1750.1666666666667,-1857.5833333333333,-1794.770833333333
1709.0,-1857.0,-1840.0
1708.7708333333333,-1857.4583333333333,-1795.1458333333333
1708.5416666666667,-1857.9166666666667,-1750.2916666666667
1708.3125,-1858.375,-1705.4375
1708.0833333333333,-1858.8333333333333,-1660.5833333333333
1707.8541666666667,-1859.2916666666667,-1615.7291666666667
1707.625,-1859.75,-1570.875
1707.3958333333333,-1860.2083333333333,-1526.0208333333335
1707.1666666666667,-1860.6666666666667,-1481.1666666666667
1706.9375,-1861.125,-1436.3125
1706.7083333333333,-1861.5833333333333,-1391.4583333333335
1706.4791666666667,-1862.0416666666667,-1346.6041666666667
1706.25,-1862.5,-1301.75
1706.0208333333333,-1862.9583333333333,-1256.8958333333335
1705.7916666666667,-1863.4166666666667,-1212.0416666666667
1705.5625,-1863.875,-1167.1875
1705.3333333333333,-1864.3333333333333,-1122.3333333333335
1705.1041666666667,-1864.7916666666667,-1077.4791666666667
1704.875,-1865.25,-1032.625
1704.6458333333333,-1865.7083333333333,-987.7708333333334
1704.4166666666667,-1866.1666666666667,-942.9166666666667
1704.1875,-1866.625,-898.0625
1703.9583333333333,-1867.0833333333333,-853.2083333333334
1703.7291666666667,-1867.5416666666667,-808.3541666666667
1703.5,-1868.0,-763.5
1703.2708333333333,-1868.4583333333333,-718.6458333333335
1703.0416666666667,-1868.9166666666667,-673.7916666666667
1702.8125,-1869.375,-628.9375
1702.5833333333333,-1869.8333333333333,-584.0833333333335
1702.3541666666667,-1870.2916666666667,-539.2291666666667
1702.125,-1870.75,-494.375
1701.8958333333333,-1871.2083333333333,-449.5208333333335
1701.6666666666667,-1871.6666666666667,-404.66666666666674
1701.4375,-1872.125,-359.8125
1701.2083333333333,-1872.5833333333333,-314.9583333333335
1700.9791666666667,-1873.0416666666667,-270.10416666666674
1700.75,-1873.5,-225.25
1700.5208333333333,-1873.9583333333333,-180.39583333333348
1700.2916666666667,-1874.4166666666667,-135.54166666666674
1700.0625,-1874.875,-90.6875
1699.8333333333333,-1875.3333333333333,-45.833333333333485
1699.6041666666667,-1875.7916666666667,-0.9791666666667425
1699.375,-1876.25,43.875
1699.1458333333333,-1876.7083333333333,88.72916666666652
1698.9166666666667,-1877.1666666666667,133.58333333333326
1698.6875,-1877.625,178.4375
1698.4583333333333,-1878.0833333333333,223.29166666666652
1698.2291666666667,-1878.5416666666667,268.14583333333303
1698.0,-1879.0,313.0
1734.1851851851852,-1879.0740740740741,312.9259259259259
1770.3703703703704,-1879.148148148148,312.85185185185185
1806.5555555555557,-1879.2222222222222,312.77777777777777
1842.7407407407406,-1879.2962962962963,312.7037037037037
1878.9259259259259,-1879.3703703703704,312.6296296296296
1915.111111111111,-1879.4444444444443,312.55555555555554
1951.2962962962963,-1879.5185185185185,312.48148148148147
1987.4814814814815,-1879.5925925925926,312.4074074074074
2023.6666666666665,-1879.6666666666667,312.3333333333333
2059.8518518518517,-1879.7407407407406,312.25925925925924
2096.037037037037,-1879.8148148148148,312.18518518518516
2132.222222222222,-1879.888888888889,312.1111111111111
2168.4074074074074,-1879.962962962963,312.037037037037
2204.5925925925926,-1880.037037037037,311.962962962963
2240.777777777778,-1880.111111111111,311.8888888888889
2276.962962962963,-1880.1851851851852,311.81481481481484
2313.1481481481483,-1880.2592592592594,311.74074074074076
2349.333333333333,-1880.3333333333333,311.6666666666667
2385.5185185185182,-1880.4074074074074,311.5925925925926
2421.7037037037035,-1880.4814814814815,311.51851851851853
2457.8888888888887,-1880.5555555555557,311.44444444444446
2494.074074074074,-1880.6296296296296,311.3703703703704
2530.259259259259,-1880.7037037037037,311.2962962962963
2566.4444444444443,-1880.7777777777778,311.22222222222223
2602.6296296296296,-1880.851851851852,311.14814814814815
2638.814814814815,-1880.9259259259259,311.0740740740741
2675.0,-1881.0,311.0
2711.185185185185,-1881.0740740740741,310.9259259259259
2747.3703703703704,-1881.148148148148,310.85185185185185
2783.5555555555557,-1881.2222222222222,310.77777777777777
2819.740740740741,-1881.2962962962963,310.7037037037037
2855.925925925926,-1881.3703703703704,310.6296296296296
2892.1111111111113,-1881.4444444444443,310.55555555555554
2928.2962962962965,-1881.5185185185185,310.48148148148147
2964.4814814814818,-1881.5925925925926,310.4074074074074
3000.6666666666665,-1881.6666666666667,310.3333333333333
3036.8518518518517,-1881.7407407407406,310.25925925925924
3073.037037037037,-1881.8148148148148,310.18518518518516
3109.222222222222,-1881.888888888889,310.1111111111111
3145.4074074074074,-1881.962962962963,310.037037037037
3181.5925925925926,-1882.037037037037,309.962962962963
3217.7777777777774,-1882.111111111111,309.8888888888889
3253.9629629629626,-1882.1851851851852,309.81481481481484
3290.148148148148,-1882.2592592592594,309.74074074074076
3326.333333333333,-1882.3333333333333,309.6666666666667
3362.5185185185182,-1882.4074074074074,309.5925925925926
3398.7037037037035,-1882.4814814814815,309.51851851851853
3434.8888888888887,-1882.5555555555557,309.44444444444446
3471.074074074074,-1882.6296296296296,309.3703703703704
3507.259259259259,-1882.7037037037037,309.2962962962963
3543.4444444444443,-1882.7777777777778,309.22222222222223
3579.6296296296296,-1882.851851851852,309.14814814814815
3615.814814814815,-1882.9259259259259,309.0740740740741
3652.0,-1883.0,309.0
3607.0,-1878.375,303.4375
3562.0,-1873.75,297.875
3517.0,-1869.125,292.3125
3472.0,-1864.5,286.75
3427.0,-1859.875,281.1875
3382.0,-1855.25,275.625
3337.0,-1850.625,270.0625
3292.0,-1846.0,264.5
3247.0,-1841.375,258.9375
3202.0,-1836.75,253.375
3157.0,-1832.125,247.8125
3112.0,-1827.5,242.25
3067.0,-1822.875,236.6875
3022.0,-1818.25,231.125
2977.0,-1813.625,225.5625
2932.0,-1809.0,220.0
2887.0,-1804.375,214.4375
2842.0,-1799.75,208.875
2797.0,-1795.125,203.3125
2752.0,-1790.5,197.75
2707.0,-1785.875,192.1875
2662.0,-1781.25,186.625
2617.0,-1776.625,181.0625
2572.0,-1772.0,175.5
2527.0,-1767.375,169.9375
2482.0,-1762.75,164.375
2437.0,-1758.125,158.8125
2392.0,-1753.5,153.25
2347.0,-1748.875,147.6875
2302.0,-1744.25,142.125
2257.0,-1739.625,136.5625
2212.0,-1735.0,131.0
2167.0,-1730.375,125.4375
2122.0,-1725.75,119.875
2077.0,-1721.125,114.3125
2032.0,-1716.5,108.75
1987.0,-1711.875,103.1875
1942.0,-1707.25,97.625
1897.0,-1702.625,92.0625
1852.0,-1698.0,86.5
1807.0,-1693.375,80.9375
1762.0,-1688.75,75.375
1717.0,-1684.125,69.8125
1672.0,-1679.5,64.25
1627.0,-1674.875,58.6875
1582.0,-1670.25,53.125
1537.0,-1665.625,47.5625
1492.0,-1661.0,42.0
1495.6875,-1623.75,3.3958333333333357
1499.375,-1586.5,-35.20833333333333
1503.0625,-1549.25,-73.8125
1506.75,-1512.0,-112.41666666666666
1510.4375,-1474.75,-151.02083333333331
1514.125,-1437.5,-189.625
1517.8125,-1400.25,-228.22916666666663
1521.5,-1363.0,-266.8333333333333
1525.1875,-1325.75,-305.4375
1528.875,-1288.5,-344.04166666666663
1532.5625,-1251.25,-382.6458333333333
1536.25,-1214.0,-421.25
1539.9375,-1176.75,-459.85416666666663
1543.625,-1139.5,-498.45833333333326
1547.3125,-1102.25,-537.0625
1551.0,-1065.0,-575.6666666666666
1554.6875,-1027.75,-614.2708333333333
1558.375,-990.5,-652.875
1562.0625,-953.25,-691.4791666666666
1565.75,-916.0,-730.0833333333333
1569.4375,-878.75,-768.6875
1573.125,-841.5,-807.2916666666666
1576.8125,-804.25,-845.8958333333333
1580.5,-767.0,-884.5
1584.1875,-729.75,-923.1041666666666
1587.875,-692.5,-961.7083333333333
1591.5625,-655.25,-1000.3125
1595.25,-618.0,-1038.9166666666665
1598.9375,-580.75,-1077.5208333333333
1602.625,-543.5,-1116.125
1606.3125,-506.25,-1154.7291666666665
1610.0,-469.0,-1193.3333333333333
1613.6875,-431.75,-1231.9375
1617.375,-394.5,-1270.5416666666665
1621.0625,-357.25,-1309.1458333333333
1624.75,-320.0,-1347.75
1628.4375,-282.75,-1386.3541666666665
1632.125,-245.5,-1424.9583333333333
1635.8125,-208.25,-1463.5625
1639.5,-171.0,-1502.1666666666665
1643.1875,-133.75,-1540.7708333333333
1646.875,-96.5,-1579.375
1650.5625,-59.25,-1617.9791666666665
1654.25,-22.0,-1656.5833333333333
1657.9375,15.25,-1695.1875
1661.625,52.5,-1733.7916666666665
1665.3125,89.75,-1772.3958333333333
1669.0,127.0,-1811.0
1706.4814814814815,90.12962962962962,-1772.111111111111
1743.962962962963,53.25925925925925,-1733.2222222222222
1781.4444444444443,16.388888888888886,-1694.3333333333333
1818.9259259259259,-20.481481481481495,-1655.4444444444443
1856.4074074074074,-57.351851851851876,-1616.5555555555557
1893.888888888889,-94.22222222222223,-1577.6666666666667
1931.3703703703704,-131.0925925925926,-1538.7777777777778
1968.8518518518517,-167.962962962963,-1499.888888888889
2006.3333333333333,-204.83333333333337,-1461.0
2043.8148148148148,-241.70370370370375,-1422.111111111111
2081.2962962962965,-278.57407407407413,-1383.2222222222222
2118.777777777778,-315.44444444444446,-1344.3333333333335
2156.259259259259,-352.31481481481484,-1305.4444444444443
2193.740740740741,-389.1851851851852,-1266.5555555555557
2231.222222222222,-426.05555555555566,-1227.6666666666667
2268.7037037037035,-462.925925925926,-1188.7777777777778
2306.185185185185,-499.7962962962963,-1149.888888888889
2343.6666666666665,-536.6666666666667,-1111.0
2381.1481481481483,-573.5370370370371,-1072.1111111111113
2418.6296296296296,-610.4074074074075,-1033.2222222222222
2456.1111111111113,-647.2777777777778,-994.3333333333334
2493.5925925925926,-684.1481481481483,-955.4444444444446
2531.074074074074,-721.0185185185186,-916.5555555555557
2568.5555555555557,-757.8888888888889,-877.6666666666667
2606.037037037037,-794.7592592592594,-838.7777777777778
2643.5185185185182,-831.6296296296297,-799.8888888888889
2681.0,-868.5000000000001,-761.0
2718.4814814814818,-905.3703703703704,-722.1111111111113
2755.962962962963,-942.2407407407409,-683.2222222222224
2793.4444444444443,-979.1111111111113,-644.3333333333335
2830.925925925926,-1015.9814814814815,-605.4444444444446
2868.4074074074074,-1052.851851851852,-566.5555555555557
2905.8888888888887,-1089.7222222222224,-527.6666666666667
2943.3703703703704,-1126.5925925925926,-488.7777777777778
2980.8518518518517,-1163.462962962963,-449.8888888888889
3018.333333333333,-1200.3333333333335,-411.0
3055.814814814815,-1237.203703703704,-372.1111111111113
3093.2962962962965,-1274.0740740740741,-333.2222222222224
3130.777777777778,-1310.9444444444446,-294.3333333333335
3168.259259259259,-1347.814814814815,-255.44444444444457
3205.740740740741,-1384.6851851851852,-216.55555555555566
3243.222222222222,-1421.5555555555557,-177.66666666666674
3280.7037037037035,-1458.425925925926,-138.77777777777783
3318.185185185185,-1495.2962962962965,-99.88888888888914
3355.666666666667,-1532.1666666666667,-61.00000000000023
3393.148148148148,-1569.0370370370372,-22.111111111111313
3430.6296296296296,-1605.9074074074076,16.7777777777776
3468.1111111111113,-1642.7777777777778,55.666666666666515
3505.5925925925926,-1679.6481481481483,94.55555555555543
3543.074074074074,-1716.5185185185187,133.44444444444434
3580.5555555555557,-1753.3888888888891,172.33333333333326
3618.037037037037,-1790.2592592592594,211.22222222222217
3655.5185185185182,-1827.1296296296298,250.11111111111086
3693.0,-1864.0,289.0
3651.5833333333335,-1822.5208333333333,289.8541666666667
3610.1666666666665,-1781.0416666666667,290.7083333333333
3568.75,-1739.5625,291.5625
3527.3333333333335,-1698.0833333333333,292.4166666666667
3485.9166666666665,-1656.6041666666667,293.2708333333333
3444.5,-1615.125,294.125
3403.0833333333335,-1573.6458333333335,294.9791666666667
3361.6666666666665,-1532.1666666666667,295.8333333333333
3320.25,-1490.6875,296.6875
3278.8333333333335,-1449.2083333333335,297.5416666666667
3237.4166666666665,-1407.7291666666667,298.3958333333333
3196.0,-1366.25,299.25
3154.5833333333335,-1324.7708333333335,300.1041666666667
3113.166666666667,-1283.2916666666667,300.9583333333333
3071.75,-1241.8125,301.8125
3030.3333333333335,-1200.3333333333335,302.6666666666667
2988.916666666667,-1158.8541666666667,303.5208333333333
2947.5,-1117.375,304.375
2906.0833333333335,-1075.8958333333335,305.2291666666667
2864.666666666667,-1034.4166666666667,306.0833333333333
2823.25,-992.9375,306.9375
2781.8333333333335,-951.4583333333334,307.7916666666667
2740.416666666667,-909.9791666666667,308.6458333333333
2699.0,-868.5,309.5
2657.5833333333335,-827.0208333333335,310.3541666666667
2616.166666666667,-785.5416666666667,311.2083333333333
2574.75,-744.0625,312.0625
2533.3333333333335,-702.5833333333335,312.9166666666667
2491.916666666667,-661.1041666666667,313.7708333333333
2450.5,-619.625,314.625
2409.0833333333335,-578.1458333333335,315.4791666666667
2367.666666666667,-536.6666666666667,316.3333333333333
2326.25,-495.1875,317.1875
2284.8333333333335,-453.7083333333335,318.0416666666667
2243.416666666667,-412.22916666666674,318.8958333333333
2202.0,-370.75,319.75
2160.5833333333335,-329.2708333333335,320.6041666666667
2119.166666666667,-287.79166666666674,321.4583333333333
2077.75,-246.3125,322.3125
2036.3333333333335,-204.83333333333348,323.1666666666667
1994.9166666666667,-163.35416666666674,324.0208333333333
1953.5,-121.875,324.875
1912.0833333333335,-80.39583333333348,325.7291666666667
1870.6666666666667,-38.91666666666674,326.5833333333333
1829.25,2.5625,327.4375
1787.8333333333335,44.041666666666515,328.2916666666667
1746.4166666666667,85.52083333333326,329.1458333333333
1705.0,127.0,330.0
1704.1666666666667,84.70833333333334,330.3958333333333
1703.3333333333333,42.41666666666667,330.7916666666667
1702.5,0.125,331.1875
1701.6666666666667,-42.16666666666666,331.5833333333333
1700.8333333333333,-84.45833333333331,331.9791666666667
1700.0,-126.75,332.375
1699.1666666666667,-169.04166666666663,332.7708333333333
1698.3333333333333,-211.33333333333331,333.1666666666667
1697.5,-253.625,333.5625
1696.6666666666667,-295.91666666666663,333.9583333333333
1695.8333333333333,-338.2083333333333,334.3541666666667
1695.0,-380.5,334.75
1694.1666666666667,-422.79166666666663,335.1458333333333
1693.3333333333333,-465.08333333333326,335.5416666666667
1692.5,-507.375,335.9375
1691.6666666666667,-549.6666666666666,336.3333333333333
1690.8333333333333,-591.9583333333333,336.7291666666667
1690.0,-634.25,337.125
1689.1666666666667,-676.5416666666666,337.5208333333333
1688.3333333333333,-718.8333333333333,337.9166666666667
1687.5,-761.125,338.3125
1686.6666666666667,-803.4166666666666,338.7083333333333
1685.8333333333333,-845.7083333333333,339.1041666666667
1685.0,-888.0,339.5
1684.1666666666667,-930.2916666666665,339.8958333333333
1683.3333333333333,-972.5833333333333,340.2916666666667
1682.5,-1014.875,340.6875
1681.6666666666667,-1057.1666666666665,341.0833333333333
1680.8333333333333,-1099.4583333333333,341.4791666666667
1680.0,-1141.75,341.875
1679.1666666666667,-1184.0416666666665,342.2708333333333
1678.3333333333333,-1226.3333333333333,342.6666666666667
1677.5,-1268.625,343.0625
1676.6666666666667,-1310.9166666666665,343.4583333333333
1675.8333333333333,-1353.2083333333333,343.8541666666667
1675.0,-1395.5,344.25
1674.1666666666667,-1437.7916666666665,344.6458333333333
1673.3333333333333,-1480.0833333333333,345.0416666666667
1672.5,-1522.375,345.4375
1671.6666666666667,-1564.6666666666665,345.8333333333333
1670.8333333333333,-1606.9583333333333,346.2291666666667
1670.0,-1649.25,346.625
1669.1666666666667,-1691.5416666666665,347.0208333333333
1668.3333333333333,-1733.8333333333333,347.4166666666667
1667.5,-1776.125,347.8125
1666.6666666666667,-1818.4166666666665,348.2083333333333
1665.8333333333333,-1860.7083333333333,348.6041666666667
1665.0,-1903.0,349.0
1702.388888888889,-1903.148148148148,348.5740740740741
1739.7777777777778,-1903.2962962962963,348.14814814814815
1777.1666666666667,-1903.4444444444443,347.72222222222223
1814.5555555555557,-1903.5925925925926,347.2962962962963
1851.9444444444443,-1903.7407407407406,346.8703703703704
1889.3333333333333,-1903.888888888889,346.44444444444446
1926.7222222222222,-1904.037037037037,346.01851851851853
1964.111111111111,-1904.1851851851852,345.5925925925926
2001.5,-1904.3333333333333,345.1666666666667
2038.888888888889,-1904.4814814814815,344.74074074074076
2076.277777777778,-1904.6296296296296,344.31481481481484
2113.6666666666665,-1904.7777777777778,343.8888888888889
2151.0555555555557,-1904.9259259259259,343.462962962963
2188.4444444444443,-1905.0740740740741,343.037037037037
2225.833333333333,-1905.2222222222222,342.6111111111111
2263.222222222222,-1905.3703703703704,342.18518518518516
2300.6111111111113,-1905.5185185185185,341.75925925925924
2338.0,-1905.6666666666667,341.3333333333333
2375.3888888888887,-1905.8148148148148,340.9074074074074
2412.777777777778,-1905.962962962963,340.48148148148147
2450.1666666666665,-1906.111111111111,340.05555555555554
2487.5555555555557,-1906.2592592592594,339.6296296296296
2524.9444444444443,-1906.4074074074074,339.2037037037037
2562.333333333333,-1906.5555555555557,338.77777777777777
2599.722222222222,-1906.7037037037037,338.35185185185185
2637.1111111111113,-1906.851851851852,337.9259259259259
2674.5,-1907.0,337.5
2711.8888888888887,-1907.148148148148,337.0740740740741
2749.2777777777774,-1907.2962962962963,336.64814814814815
2786.6666666666665,-1907.4444444444443,336.22222222222223
2824.0555555555557,-1907.5925925925926,335.7962962962963
2861.4444444444443,-1907.7407407407406,335.3703703703704
2898.833333333333,-1907.888888888889,334.94444444444446
2936.222222222222,-1908.037037037037,334.51851851851853
2973.6111111111113,-1908.1851851851852,334.0925925925926
3011.0,-1908.3333333333333,333.6666666666667
3048.3888888888887,-1908.4814814814815,333.24074074074076
3085.7777777777774,-1908.6296296296296,332.81481481481484
3123.1666666666665,-1908.7777777777778,332.3888888888889
3160.5555555555557,-1908.9259259259259,331.96296296296293
3197.9444444444443,-1909.0740740740741,331.53703703703707
3235.333333333333,-1909.2222222222222,331.1111111111111
3272.722222222222,-1909.3703703703704,330.68518518518516
3310.111111111111,-1909.5185185185185,330.25925925925924
3347.5,-1909.6666666666667,329.8333333333333
3384.8888888888887,-1909.8148148148148,329.4074074074074
3422.2777777777774,-1909.962962962963,328.98148148148147
3459.6666666666665,-1910.111111111111,328.55555555555554
3497.0555555555557,-1910.2592592592594,328.1296296296296
3534.4444444444443,-1910.4074074074074,327.7037037037037
3571.833333333333,-1910.5555555555557,327.27777777777777
3609.222222222222,-1910.7037037037037,326.85185185185185
3646.611111111111,-1910.851851851852,326.4259259259259
3684.0,-1911.0,326.0
3684.425925925926,-1909.5555555555557,325.85185185185185
3684.8518518518517,-1908.111111111111,325.7037037037037
3685.277777777778,-1906.6666666666667,325.55555555555554
3685.703703703704,-1905.2222222222222,325.4074074074074
3686.1296296296296,-1903.7777777777778,325.25925925925924
3686.5555555555557,-1902.3333333333333,325.1111111111111
3686.9814814814813,-1900.888888888889,324.962962962963
3687.4074074074074,-1899.4444444444443,324.81481481481484
3687.8333333333335,-1898.0,324.6666666666667
3688.259259259259,-1896.5555555555557,324.51851851851853
3688.685185185185,-1895.111111111111,324.3703703703704
3689.1111111111113,-1893.6666666666667,324.22222222222223
3689.537037037037,-1892.2222222222222,324.0740740740741
3689.962962962963,-1890.7777777777778,323.9259259259259
3690.3888888888887,-1889.3333333333333,323.77777777777777
3690.814814814815,-1887.888888888889,323.6296296296296
3691.240740740741,-1886.4444444444443,323.48148148148147
3691.6666666666665,-1885.0,323.3333333333333
3692.0925925925926,-1883.5555555555557,323.18518518518516
3692.5185185185187,-1882.111111111111,323.037037037037
3692.9444444444443,-1880.6666666666667,322.8888888888889
3693.3703703703704,-1879.2222222222222,322.74074074074076
3693.796296296296,-1877.7777777777778,322.5925925925926
3694.222222222222,-1876.3333333333333,322.44444444444446
3694.6481481481483,-1874.888888888889,322.2962962962963
3695.074074074074,-1873.4444444444443,322.14814814814815
3695.5,-1872.0,322.0
3695.925925925926,-1870.5555555555557,321.85185185185185
3696.3518518518517,-1869.111111111111,321.7037037037037
3696.777777777778,-1867.6666666666667,321.55555555555554
3697.203703703704,-1866.2222222222222,321.4074074074074
3697.6296296296296,-1864.7777777777778,321.25925925925924
3698.0555555555557,-1863.3333333333333,321.1111111111111
3698.4814814814813,-1861.888888888889,320.962962962963
3698.9074074074074,-1860.4444444444443,320.81481481481484
3699.3333333333335,-1859.0,320.6666666666667
3699.759259259259,-1857.5555555555557,320.51851851851853
3700.185185185185,-1856.111111111111,320.3703703703704
3700.6111111111113,-1854.6666666666667,320.22222222222223
3701.037037037037,-1853.2222222222222,320.0740740740741
3701.462962962963,-1851.7777777777778,319.9259259259259
3701.8888888888887,-1850.3333333333333,319.77777777777777
3702.314814814815,-1848.888888888889,319.6296296296296
3702.740740740741,-1847.4444444444443,319.48148148148147
3703.1666666666665,-1846.0,319.3333333333333
3703.5925925925926,-1844.5555555555557,319.18518518518516
3704.0185185185187,-1843.111111111111,319.037037037037
3704.4444444444443,-1841.6666666666667,318.8888888888889
3704.8703703703704,-1840.2222222222222,318.74074074074076
3705.296296296296,-1838.7777777777778,318.5925925925926
3705.722222222222,-1837.3333333333333,318.44444444444446
3706.1481481481483,-1835.888888888889,318.2962962962963
3706.574074074074,-1834.4444444444443,318.14814814814815
3707.0,-1833.0,318.0
3706.809523809524,-1833.9285714285713,316.7857142857143
3706.6190476190477,-1834.857142857143,315.57142857142856
3706.4285714285716,-1835.7857142857142,314.35714285714283
3706.2380952380954,-1836.7142857142858,313.14285714285717
3706.0476190476193,-1837.642857142857,311.92857142857144
3705.8571428571427,-1838.5714285714287,310.7142857142857
3705.6666666666665,-1839.5,309.5
3705.4761904761904,-1840.4285714285713,308.2857142857143
3705.285714285714,-1841.357142857143,307.07142857142856
3705.095238095238,-1842.2857142857142,305.85714285714283
3704.904761904762,-1843.2142857142858,304.64285714285717
3704.714285714286,-1844.142857142857,303.42857142857144
3704.5238095238096,-1845.0714285714287,302.2142857142857
3704.3333333333335,-1846.0,301.0
3704.1428571428573,-1846.9285714285713,299.7857142857143
3703.9523809523807,-1847.857142857143,298.57142857142856
3703.7619047619046,-1848.7857142857142,297.35714285714283
3703.5714285714284,-1849.7142857142858,296.14285714285717
3703.3809523809523,-1850.642857142857,294.92857142857144
3703.190476190476,-1851.5714285714287,293.7142857142857
3703.0,-1852.5,292.5
3702.809523809524,-1853.4285714285713,291.2857142857143
3702.6190476190477,-1854.357142857143,290.07142857142856
3702.4285714285716,-1855.2857142857142,288.8571428571429
3702.2380952380954,-1856.2142857142858,287.64285714285717
3702.0476190476193,-1857.142857142857,286.42857142857144
3701.8571428571427,-1858.0714285714287,285.2142857142857
3701.6666666666665,-1859.0,284.0
3701.4761904761904,-1859.9285714285713,282.7857142857143
3701.285714285714,-1860.857142857143,281.57142857142856
3701.095238095238,-1861.7857142857142,280.3571428571429
3700.904761904762,-1862.7142857142858,279.14285714285717
3700.714285714286,-1863.642857142857,277.92857142857144
3700.5238095238096,-1864.5714285714287,276.7142857142857
3700.3333333333335,-1865.5,275.5
3700.1428571428573,-1866.4285714285713,274.2857142857143
3699.9523809523807,-1867.357142857143,273.07142857142856
3699.7619047619046,-1868.2857142857142,271.8571428571429
3699.5714285714284,-1869.2142857142858,270.64285714285717
3699.3809523809523,-1870.142857142857,269.42857142857144
3699.190476190476,-1871.0714285714287,268.2142857142857
3699.0,-1872.0,267.0
3662.8518518518517,-1799.5555555555557,228.16666666666666
3626.703703703704,-1727.111111111111,189.33333333333331
3590.5555555555557,-1654.6666666666667,150.5
3554.4074074074074,-1582.2222222222222,111.66666666666666
3518.259259259259,-1509.7777777777778,72.83333333333331
3482.1111111111113,-1437.3333333333335,34.0
3445.962962962963,-1364.888888888889,-4.833333333333371
3409.814814814815,-1292.4444444444443,-43.666666666666686
3373.6666666666665,-1220.0,-82.5
3337.5185185185187,-1147.5555555555557,-121.33333333333337
3301.3703703703704,-1075.111111111111,-160.16666666666669
3265.222222222222,-1002.6666666666667,-199.0
3229.074074074074,-930.2222222222223,-237.83333333333337
3192.925925925926,-857.7777777777778,-276.66666666666674
3156.777777777778,-785.3333333333333,-315.5
3120.6296296296296,-712.8888888888889,-354.33333333333337
3084.4814814814818,-640.4444444444446,-393.16666666666674
3048.3333333333335,-568.0,-432.0
3012.185185185185,-495.55555555555566,-470.83333333333337
2976.037037037037,-423.1111111111111,-509.66666666666674
2939.8888888888887,-350.66666666666674,-548.5
2903.740740740741,-278.2222222222222,-587.3333333333334
2867.5925925925926,-205.77777777777783,-626.1666666666667
2831.4444444444443,-133.33333333333348,-665.0
2795.2962962962965,-60.888888888888914,-703.8333333333334
2759.1481481481483,11.55555555555543,-742.6666666666667
2723.0,84.0,-781.5
2686.851851851852,156.44444444444434,-820.3333333333335
2650.7037037037035,228.8888888888887,-859.1666666666667
2614.5555555555557,301.3333333333335,-898.0
2578.4074074074074,373.7777777777778,-936.8333333333335
2542.259259259259,446.2222222222222,-975.6666666666667
2506.1111111111113,518.6666666666665,-1014.5
2469.962962962963,591.1111111111109,-1053.3333333333335
2433.814814814815,663.5555555555557,-1092.1666666666667
2397.666666666667,736.0,-1131.0
2361.5185185185187,808.4444444444443,-1169.8333333333335
2325.3703703703704,880.8888888888887,-1208.6666666666667
2289.2222222222226,953.3333333333335,-1247.5
2253.074074074074,1025.7777777777778,-1286.3333333333335
2216.925925925926,1098.2222222222222,-1325.1666666666667
2180.777777777778,1170.6666666666665,-1364.0
2144.6296296296296,1243.1111111111109,-1402.8333333333335
2108.4814814814818,1315.5555555555557,-1441.6666666666667
2072.3333333333335,1388.0,-1480.5
2036.1851851851852,1460.4444444444443,-1519.3333333333335
2000.0370370370372,1532.8888888888887,-1558.1666666666667
1963.8888888888891,1605.333333333333,-1597.0
1927.7407407407409,1677.7777777777778,-1635.8333333333335
1891.5925925925928,1750.2222222222222,-1674.6666666666667
1855.4444444444446,1822.6666666666665,-1713.5000000000002
1819.2962962962965,1895.1111111111109,-1752.3333333333335
1783.1481481481483,1967.5555555555557,-1791.166666666667
1747.0,2040.0,-1830.0
1747.7291666666667,1964.2083333333333,-1831.8541666666667
1748.4583333333333,1888.4166666666667,-1833.7083333333333
1749.1875,1812.625,-1835.5625
1749.9166666666667,1736.8333333333333,-1837.4166666666667
1750.6458333333333,1661.0416666666665,-1839.2708333333333
1751.375,1585.25,-1841.125
1752.1041666666667,1509.4583333333333,-1842.9791666666667
1752.8333333333333,1433.6666666666665,-1844.8333333333333
1753.5625,1357.875,-1846.6875
1754.2916666666667,1282.0833333333333,-1848.5416666666667
1755.0208333333333,1206.2916666666665,-1850.3958333333333
1755.75,1130.5,-1852.25
1756.4791666666667,1054.7083333333333,-1854.1041666666667
1757.2083333333333,978.9166666666665,-1855.9583333333333
1757.9375,903.125,-1857.8125
1758.6666666666667,827.3333333333333,-1859.6666666666667
1759.3958333333333,751.5416666666665,-1861.5208333333333
1760.125,675.75,-1863.375
1760.8541666666667,599.9583333333333,-1865.2291666666667
1761.5833333333333,524.1666666666665,-1867.0833333333333
1762.3125,448.375,-1868.9375
1763.0416666666667,372.58333333333326,-1870.7916666666667
1763.7708333333333,296.7916666666665,-1872.6458333333333
1764.5,221.0,-1874.5
1765.2291666666667,145.20833333333326,-1876.3541666666667
1765.9583333333333,69.41666666666652,-1878.2083333333333
1766.6875,-6.375000000000227,-1880.0625
1767.4166666666667,-82.16666666666697,-1881.9166666666667
1768.1458333333333,-157.95833333333348,-1883.7708333333333
1768.875,-233.75,-1885.625
1769.6041666666667,-309.54166666666697,-1887.4791666666667
1770.3333333333333,-385.3333333333335,-1889.3333333333333
1771.0625,-461.125,-1891.1875
1771.7916666666667,-536.916666666667,-1893.0416666666667
1772.5208333333333,-612.7083333333335,-1894.8958333333333
1773.25,-688.5,-1896.75
1773.9791666666667,-764.291666666667,-1898.6041666666667
1774.7083333333333,-840.0833333333335,-1900.4583333333333
1775.4375,-915.875,-1902.3125
1776.1666666666667,-991.666666666667,-1904.1666666666667
1776.8958333333333,-1067.4583333333335,-1906.0208333333333
1777.625,-1143.25,-1907.875
1778.3541666666667,-1219.041666666667,-1909.7291666666667
1779.0833333333333,-1294.8333333333335,-1911.5833333333333
1779.8125,-1370.625,-1913.4375
1780.5416666666667,-1446.416666666667,-1915.2916666666667
1781.2708333333333,-1522.2083333333335,-1917.1458333333333
1782.0,-1598.0,-1919.0
1785.1041666666667,-1598.4375,-1917.7291666666667
1788.2083333333333,-1598.875,-1916.4583333333333
1791.3125,-1599.3125,-1915.1875
1794.4166666666667,-1599.75,-1913.9166666666667
1797.5208333333333,-1600.1875,-1912.6458333333333
1800.625,-1600.625,-1911.375
1803.7291666666667,-1601.0625,-1910.1041666666667
1806.8333333333333,-1601.5,-1908.8333333333333
1809.9375,-1601.9375,-1907.5625
1813.0416666666667,-1602.375,-1906.2916666666667
1816.1458333333333,-1602.8125,-1905.0208333333333
1819.25,-1603.25,-1903.75
1822.3541666666667,-1603.6875,-1902.4791666666667
1825.4583333333333,-1604.125,-1901.2083333333333
1828.5625,-1604.5625,-1899.9375
1831.6666666666667,-1605.0,-1898.6666666666667
1834.7708333333333,-1605.4375,-1897.3958333333333
1837.875,-1605.875,-1896.125
1840.9791666666667,-1606.3125,-1894.8541666666667
1844.0833333333333,-1606.75,-1893.5833333333333
1847.1875,-1607.1875,-1892.3125
1850.2916666666667,-1607.625,-1891.0416666666667
1853.3958333333333,-1608.0625,-1889.7708333333333
1856.5,-1608.5,-1888.5
1859.6041666666667,-1608.9375,-1887.2291666666667
1862.7083333333333,-1609.375,-1885.9583333333333
1865.8125,-1609.8125,-1884.6875
1868.9166666666667,-1610.25,-1883.4166666666667
1872.0208333333333,-1610.6875,-1882.1458333333333
1875.125,-1611.125,-1880.875
1878.2291666666667,-1611.5625,-1879.6041666666667
1881.3333333333333,-1612.0,-1878.3333333333333
1884.4375,-1612.4375,-1877.0625
1887.5416666666667,-1612.875,-1875.7916666666667
1890.6458333333333,-1613.3125,-1874.5208333333333
1893.75,-1613.75,-1873.25
1896.8541666666667,-1614.1875,-1871.9791666666667
1899.9583333333333,-1614.625,-1870.7083333333333
1903.0625,-1615.0625,-1869.4375
1906.1666666666667,-1615.5,-1868.1666666666667
1909.2708333333333,-1615.9375,-1866.8958333333333
1912.375,-1616.375,-1865.625
1915.4791666666667,-1616.8125,-1864.3541666666667
1918.5833333333333,-1617.25,-1863.0833333333333
1921.6875,-1617.6875,-1861.8125
1924.7916666666667,-1618.125,-1860.5416666666667
1927.8958333333333,-1618.5625,-1859.2708333333333
1931.0,-1619.0,-1858.0
1931.1666666666667,-1619.0,-1858.1296296296296
1931.3333333333333,-1619.0,-1858.2592592592594
1931.5,-1619.0,-1858.388888888889
1931.6666666666667,-1619.0,-1858.5185185185185
1931.8333333333333,-1619.0,-1858.648148148148
1932.0,-1619.0,-1858.7777777777778
1932.1666666666667,-1619.0,-1858.9074074074074
1932.3333333333333,-1619.0,-1859.037037037037
1932.5,-1619.0,-1859.1666666666667
1932.6666666666667,-1619.0,-1859.2962962962963
1932.8333333333333,-1619.0,-1859.4259259259259
1933.0,-1619.0,-1859.5555555555557
1933.1666666666667,-1619.0,-1859.6851851851852
1933.3333333333333,-1619.0,-1859.8148148148148
1933.5,-1619.0,-1859.9444444444443
1933.6666666666667,-1619.0,-1860.0740740740741
1933.8333333333333,-1619.0,-1860.2037037037037
1934.0,-1619.0,-1860.3333333333333
1934.1666666666667,-1619.0,-1860.462962962963
1934.3333333333333,-1619.0,-1860.5925925925926
1934.5,-1619.0,-1860.7222222222222
1934.6666666666667,-1619.0,-1860.851851851852
1934.8333333333333,-1619.0,-1860.9814814814815
1935.0,-1619.0,-1861.111111111111
1935.1666666666667,-1619.0,-1861.2407407407406
1935.3333333333333,-1619.0,-1861.3703703703704
1935.5,-1619.0,-1861.5
1935.6666666666667,-1619.0,-1861.6296296296296
1935.8333333333333,-1619.0,-1861.7592592592594
1936.0,-1619.0,-1861.888888888889
1936.1666666666667,-1619.0,-1862.0185185185185
1936.3333333333333,-1619.0,-1862.148148148148
1936.5,-1619.0,-1862.2777777777778
1936.6666666666667,-1619.0,-1862.4074074074074
1936.8333333333333,-1619.0,-1862.537037037037
1937.0,-1619.0,-1862.6666666666667
1937.1666666666667,-1619.0,-1862.7962962962963
1937.3333333333333,-1619.0,-1862.9259259259259
1937.5,-1619.0,-1863.0555555555557
1937.6666666666667,-1619.0,-1863.1851851851852
1937.8333333333333,-1619.0,-1863.3148148148148
1938.0,-1619.0,-1863.4444444444443
1938.1666666666667,-1619.0,-1863.5740740740741
1938.3333333333333,-1619.0,-1863.7037037037037
1938.5,-1619.0,-1863.8333333333333
1938.6666666666667,-1619.0,-1863.962962962963
1938.8333333333333,-1619.0,-1864.0925925925926
1939.0,-1619.0,-1864.2222222222222
1939.1666666666667,-1619.0,-1864.351851851852
1939.3333333333333,-1619.0,-1864.4814814814815
1939.5,-1619.0,-1864.611111111111
1939.6666666666667,-1619.0,-1864.7407407407406
1939.8333333333333,-1619.0,-1864.8703703703704
1940.0,-1619.0,-1865.0
1939.9333333333334,-1619.1333333333334,-1865.0666666666666
1939.8666666666666,-1619.2666666666667,-1865.1333333333334
1939.8,-1619.4,-1865.2
1939.7333333333333,-1619.5333333333333,-1865.2666666666667
1939.6666666666667,-1619.6666666666667,-1865.3333333333333
1939.6,-1619.8,-1865.4
1939.5333333333333,-1619.9333333333334,-1865.4666666666667
1939.4666666666667,-1620.0666666666666,-1865.5333333333333
1939.4,-1620.2,-1865.6
1939.3333333333333,-1620.3333333333333,-1865.6666666666667
1939.2666666666667,-1620.4666666666667,-1865.7333333333333
1939.2,-1620.6,-1865.8
1939.1333333333334,-1620.7333333333333,-1865.8666666666666
1939.0666666666666,-1620.8666666666666,-1865.9333333333334
1939.0,-1621.0,-1866.0
1938.9333333333334,-1621.1333333333334,-1866.0666666666666
1938.8666666666666,-1621.2666666666667,-1866.1333333333334
1938.8,-1621.4,-1866.2
1938.7333333333333,-1621.5333333333333,-1866.2666666666667
1938.6666666666667,-1621.6666666666667,-1866.3333333333333
1938.6,-1621.8,-1866.4
1938.5333333333333,-1621.9333333333334,-1866.4666666666667
1938.4666666666667,-1622.0666666666666,-1866.5333333333333
1938.4,-1622.2,-1866.6
1938.3333333333333,-1622.3333333333333,-1866.6666666666667
1938.2666666666667,-1622.4666666666667,-1866.7333333333333
1938.2,-1622.6,-1866.8
1938.1333333333334,-1622.7333333333333,-1866.8666666666666
1938.0666666666666,-1622.8666666666666,-1866.9333333333334
1938.0,-1623.0,-1867.0
1937.9333333333334,-1623.1333333333334,-1867.0666666666666
1937.8666666666666,-1623.2666666666667,-1867.1333333333334
1937.8,-1623.4,-1867.2
1937.7333333333333,-1623.5333333333333,-1867.2666666666667
1937.6666666666667,-1623.6666666666667,-1867.3333333333333
1937.6,-1623.8,-1867.4
1937.5333333333333,-1623.9333333333334,-1867.4666666666667
1937.4666666666667,-1624.0666666666666,-1867.5333333333333
1937.4,-1624.2,-1867.6
1937.3333333333333,-1624.3333333333333,-1867.6666666666667
1937.2666666666667,-1624.4666666666667,-1867.7333333333333
1937.2,-1624.6,-1867.8
1937.1333333333334,-1624.7333333333333,-1867.8666666666666
1937.0666666666666,-1624.8666666666666,-1867.9333333333334
1937.0,-1625.0,-1868.0
1936.9333333333334,-1625.1333333333334,-1868.0666666666666
1936.8666666666666,-1625.2666666666667,-1868.1333333333334
1936.8,-1625.4,-1868.2
1936.7333333333333,-1625.5333333333333,-1868.2666666666667
1936.6666666666667,-1625.6666666666667,-1868.3333333333333
1936.6,-1625.8,-1868.4
1936.5333333333333,-1625.9333333333334,-1868.4666666666667
1936.4666666666667,-1626.0666666666666,-1868.5333333333333
1936.4,-1626.2,-1868.6
1936.3333333333333,-1626.3333333333333,-1868.6666666666667
1936.2666666666667,-1626.4666666666667,-1868.7333333333333
1936.2,-1626.6,-1868.8
1936.1333333333334,-1626.7333333333333,-1868.8666666666666
1936.0666666666666,-1626.8666666666666,-1868.9333333333334
1936.0,-1627.0,-1869.0
1936.111111111111,-1627.0555555555557,-1868.361111111111
1936.2222222222222,-1627.111111111111,-1867.7222222222222
1936.3333333333333,-1627.1666666666667,-1867.0833333333333
1936.4444444444443,-1627.2222222222222,-1866.4444444444443
1936.5555555555557,-1627.2777777777778,-1865.8055555555557
1936.6666666666667,-1627.3333333333333,-1865.1666666666667
1936.7777777777778,-1627.388888888889,-1864.5277777777778
1936.888888888889,-1627.4444444444443,-1863.888888888889
1937.0,-1627.5,-1863.25
1937.111111111111,-1627.5555555555557,-1862.611111111111
1937.2222222222222,-1627.611111111111,-1861.9722222222222
1937.3333333333333,-1627.6666666666667,-1861.3333333333333
1937.4444444444443,-1627.7222222222222,-1860.6944444444443
1937.5555555555557,-1627.7777777777778,-1860.0555555555557
1937.6666666666667,-1627.8333333333333,-1859.4166666666667
1937.7777777777778,-1627.888888888889,-1858.7777777777778
1937.888888888889,-1627.9444444444443,-1858.138888888889
1938.0,-1628.0,-1857.5
1938.111111111111,-1628.0555555555557,-1856.861111111111
1938.2222222222222,-1628.111111111111,-1856.2222222222222
1938.3333333333333,-1628.1666666666667,-1855.5833333333333
1938.4444444444443,-1628.2222222222222,-1854.9444444444443
1938.5555555555557,-1628.2777777777778,-1854.3055555555557
1938.6666666666667,-1628.3333333333333,-1853.6666666666667
1938.7777777777778,-1628.388888888889,-1853.0277777777778
1938.888888888889,-1628.4444444444443,-1852.388888888889
1939.0,-1628.5,-1851.75
1939.111111111111,-1628.5555555555557,-1851.111111111111
1939.2222222222222,-1628.611111111111,-1850.4722222222222
1939.3333333333333,-1628.6666666666667,-1849.8333333333333
1939.4444444444443,-1628.7222222222222,-1849.1944444444443
1939.5555555555557,-1628.7777777777778,-1848.5555555555557
1939.6666666666667,-1628.8333333333333,-1847.9166666666667
1939.7777777777778,-1628.888888888889,-1847.2777777777778
1939.888888888889,-1628.9444444444443,-1846.638888888889
1940.0,-1629.0,-1846.0
1940.2833333333333,-1628.6833333333334,-1846.3333333333333
1940.5666666666666,-1628.3666666666666,-1846.6666666666667
1940.85,-1628.05,-1847.0
1941.1333333333334,-1627.7333333333333,-1847.3333333333333
1941.4166666666667,-1627.4166666666667,-1847.6666666666667
1941.7,-1627.1,-1848.0
1941.9833333333333,-1626.7833333333333,-1848.3333333333333
1942.2666666666667,-1626.4666666666667,-1848.6666666666667
1942.55,-1626.15,-1849.0
1942.8333333333333,-1625.8333333333333,-1849.3333333333333
1943.1166666666666,-1625.5166666666667,-1849.6666666666667
1943.4,-1625.2,-1850.0
1943.6833333333334,-1624.8833333333334,-1850.3333333333333
1943.9666666666667,-1624.5666666666666,-1850.6666666666667
1944.25,-1624.25,-1851.0
1944.5333333333333,-1623.9333333333334,-1851.3333333333333
1944.8166666666666,-1623.6166666666666,-1851.6666666666667
1945.1,-1623.3,-1852.0
1945.3833333333334,-1622.9833333333333,-1852.3333333333333
1945.6666666666667,-1622.6666666666667,-1852.6666666666667
1945.95,-1622.35,-1853.0
1946.2333333333333,-1622.0333333333333,-1853.3333333333333
1946.5166666666667,-1621.7166666666667,-1853.6666666666667
1946.8,-1621.4,-1854.0
1947.0833333333333,-1621.0833333333333,-1854.3333333333333
1947.3666666666666,-1620.7666666666667,-1854.6666666666667
1947.65,-1620.45,-1855.0
1947.9333333333334,-1620.1333333333334,-1855.3333333333333
1948.2166666666667,-1619.8166666666666,-1855.6666666666667
1948.5,-1619.5,-1856.0
1948.7833333333333,-1619.1833333333334,-1856.3333333333333
1949.0666666666666,-1618.8666666666666,-1856.6666666666667
1949.35,-1618.55,-1857.0
1949.6333333333334,-1618.2333333333333,-1857.3333333333333
1949.9166666666667,-1617.9166666666667,-1857.6666666666667
1950.2,-1617.6,-1858.0
1950.4833333333333,-1617.2833333333333,-1858.3333333333333
1950.7666666666667,-1616.9666666666667,-1858.6666666666667
1951.05,-1616.65,-1859.0
1951.3333333333333,-1616.3333333333333,-1859.3333333333333
1951.6166666666666,-1616.0166666666667,-1859.6666666666667
1951.9,-1615.7,-1860.0
1952.1833333333334,-1615.3833333333334,-1860.3333333333333
1952.4666666666667,-1615.0666666666666,-1860.6666666666667
1952.75,-1614.75,-1861.0
1953.0333333333333,-1614.4333333333334,-1861.3333333333333
1953.3166666666666,-1614.1166666666666,-1861.6666666666667
1953.6,-1613.8,-1862.0
1953.8833333333334,-1613.4833333333333,-1862.3333333333333
1954.1666666666667,-1613.1666666666667,-1862.6666666666667
1954.45,-1612.85,-1863.0
1954.7333333333333,-1612.5333333333333,-1863.3333333333333
1955.0166666666667,-1612.2166666666667,-1863.6666666666667
1955.3,-1611.9,-1864.0
1955.5833333333333,-1611.5833333333333,-1864.3333333333333
1955.8666666666666,-1611.2666666666667,-1864.6666666666667
1956.15,-1610.95,-1865.0
1956.4333333333334,-1610.6333333333334,-1865.3333333333333
1956.7166666666667,-1610.3166666666666,-1865.6666666666667
1957.0,-1610.0,-1866.0
