timestamp,accX,accY,accZ,ppg,spO2
2026-01-10 20:41:33.700,1676.0,-1881.0,262.0,4851.0,6269.0
2026-01-10 20:41:33.720,1723.3023255813953,-1834.5116279069766,263.3720930232558,4850.953488372093,6269.302325581395
2026-01-10 20:41:33.740,1770.6046511627908,-1788.0232558139535,264.74418604651163,4850.906976744186,6269.604651162791
2026-01-10 20:41:33.760,1817.906976744186,-1741.5348837209303,266.1162790697674,4850.860465116279,6269.906976744186
2026-01-10 20:41:33.780,1865.2093023255813,-1695.046511627907,267.48837209302326,4850.813953488372,6270.209302325581
2026-01-10 20:41:33.800,1912.5116279069766,-1648.5581395348836,268.86046511627904,4850.767441860465,6270.511627906977
2026-01-10 20:41:33.820,1959.8139534883721,-1602.0697674418604,270.2325581395349,4850.720930232558,6270.813953488372
2026-01-10 20:41:33.840,2007.1162790697674,-1555.5813953488373,271.6046511627907,4850.674418604651,6271.116279069767
2026-01-10 20:41:33.860,2054.4186046511627,-1509.093023255814,272.9767441860465,4850.627906976744,6271.418604651163
2026-01-10 20:41:33.880,2101.720930232558,-1462.6046511627906,274.3488372093023,4850.581395348837,6271.720930232558
2026-01-10 20:41:33.900,2149.0232558139533,-1416.1162790697674,275.72093023255815,4850.53488372093,6272.023255813953
2026-01-10 20:41:33.920,2196.3255813953488,-1369.6279069767443,277.09302325581393,4850.488372093023,6272.325581395349
2026-01-10 20:41:33.940,2243.6279069767443,-1323.139534883721,278.4651162790698,4850.441860465116,6272.627906976744
2026-01-10 20:41:33.960,2290.9302325581393,-1276.6511627906975,279.83720930232556,4850.395348837209,6272.930232558139
2026-01-10 20:41:33.980,2338.232558139535,-1230.1627906976744,281.2093023255814,4850.3488372093025,6273.232558139535
2026-01-10 20:41:34.000,2385.5348837209303,-1183.6744186046512,282.5813953488372,4850.302325581395,6273.53488372093
2026-01-10 20:41:34.020,2432.8372093023254,-1137.1860465116279,283.95348837209303,4850.2558139534885,6273.837209302325
2026-01-10 20:41:34.040,2480.139534883721,-1090.6976744186045,285.3255813953488,4850.209302325581,6274.139534883721
2026-01-10 20:41:34.060,2527.4418604651164,-1044.2093023255813,286.69767441860466,4850.162790697675,6274.441860465116
2026-01-10 20:41:34.080,2574.7441860465115,-997.7209302325581,288.06976744186045,4850.116279069767,6274.7441860465115
2026-01-10 20:41:34.100,2622.046511627907,-951.2325581395348,289.4418604651163,4850.069767441861,6275.046511627907
2026-01-10 20:41:34.120,2669.3488372093025,-904.7441860465116,290.8139534883721,4850.023255813953,6275.3488372093025
2026-01-10 20:41:34.140,2716.6511627906975,-858.2558139534883,292.1860465116279,4849.976744186047,6275.6511627906975
2026-01-10 20:41:34.160,2763.953488372093,-811.7674418604652,293.5581395348837,4849.930232558139,6275.953488372093
2026-01-10 20:41:34.180,2811.2558139534885,-765.2790697674418,294.93023255813955,4849.883720930233,6276.2558139534885
2026-01-10 20:41:34.200,2858.5581395348836,-718.7906976744184,296.30232558139534,4849.837209302325,6276.558139534884
2026-01-10 20:41:34.220,2905.860465116279,-672.3023255813953,297.6744186046512,4849.790697674419,6276.860465116279
2026-01-10 20:41:34.240,2953.1627906976746,-625.8139534883721,299.04651162790697,4849.7441860465115,6277.162790697675
2026-01-10 20:41:34.260,3000.4651162790697,-579.3255813953488,300.4186046511628,4849.697674418605,6277.46511627907
2026-01-10 20:41:34.280,3047.767441860465,-532.8372093023254,301.7906976744186,4849.6511627906975,6277.767441860465
2026-01-10 20:41:34.300,3095.0697674418607,-486.34883720930225,303.16279069767444,4849.604651162791,6278.069767441861
2026-01-10 20:41:34.320,3142.3720930232557,-439.8604651162791,304.5348837209302,4849.558139534884,6278.372093023256
2026-01-10 20:41:34.340,3189.6744186046512,-393.37209302325573,305.90697674418607,4849.511627906977,6278.674418604651
2026-01-10 20:41:34.360,3236.9767441860467,-346.88372093023236,307.27906976744185,4849.46511627907,6278.976744186047
2026-01-10 20:41:34.380,3284.279069767442,-300.3953488372092,308.6511627906977,4849.418604651163,6279.279069767442
2026-01-10 20:41:34.400,3331.5813953488373,-253.90697674418607,310.0232558139535,4849.372093023256,6279.581395348837
2026-01-10 20:41:34.420,3378.883720930233,-207.4186046511627,311.3953488372093,4849.325581395349,6279.883720930233
2026-01-10 20:41:34.440,3426.186046511628,-160.93023255813932,312.7674418604651,4849.279069767442,6280.186046511628
2026-01-10 20:41:34.460,3473.4883720930234,-114.44186046511618,314.1395348837209,4849.232558139535,6280.488372093023
2026-01-10 20:41:34.480,3520.790697674419,-67.95348837209303,315.51162790697674,4849.186046511628,6280.790697674419
2026-01-10 20:41:34.500,3568.093023255814,-21.46511627906966,316.8837209302326,4849.139534883721,6281.093023255814
2026-01-10 20:41:34.520,3615.3953488372094,25.02325581395371,318.25581395348837,4849.093023255814,6281.395348837209
2026-01-10 20:41:34.540,3662.697674418605,71.51162790697686,319.62790697674416,4849.046511627907,6281.697674418605
2026-01-10 20:41:34.560,3710.0,118.0,321.0,4849.0,6282.0
2026-01-10 20:41:34.580,3670.08,78.44,320.62,4849.12,6282.1
2026-01-10 20:41:34.600,3630.16,38.879999999999995,320.24,4849.24,6282.2
2026-01-10 20:41:34.620,3590.24,-0.6800000000000068,319.86,4849.36,6282.3
2026-01-10 20:41:34.640,3550.32,-40.24000000000001,319.48,4849.48,6282.4
2026-01-10 20:41:34.660,3510.4,-79.80000000000001,319.1,4849.6,6282.5
2026-01-10 20:41:34.680,3470.48,-119.36000000000001,318.72,4849.72,6282.6
2026-01-10 20:41:34.700,3430.56,-158.92000000000002,318.34,4849.84,6282.7
2026-01-10 20:41:34.720,3390.64,-198.48000000000002,317.96,4849.96,6282.8
2026-01-10 20:41:34.740,3350.72,-238.04000000000002,317.58,4850.08,6282.9
2026-01-10 20:41:34.760,3310.8,-277.6,317.2,4850.2,6283.0
2026-01-10 20:41:34.780,3270.88,-317.16,316.82,4850.32,6283.1
2026-01-10 20:41:34.800,3230.96,-356.72,316.44,4850.44,6283.2
2026-01-10 20:41:34.820,3191.04,-396.28,316.06,4850.56,6283.3
2026-01-10 20:41:34.840,3151.12,-435.84000000000003,315.68,4850.68,6283.4
2026-01-10 20:41:34.860,3111.2,-475.4000000000001,315.3,4850.8,6283.5
2026-01-10 20:41:34.880,3071.2799999999997,-514.96,314.92,4850.92,6283.6
2026-01-10 20:41:34.900,3031.36,-554.52,314.54,4851.04,6283.7
2026-01-10 20:41:34.920,2991.44,-594.08,314.16,4851.16,6283.8
2026-01-10 20:41:34.940,2951.52,-633.6400000000001,313.78,4851.28,6283.9
2026-01-10 20:41:34.960,2911.6,-673.2,313.4,4851.4,6284.0
2026-01-10 20:41:34.980,2871.68,-712.76,313.02,4851.52,6284.1
2026-01-10 20:41:35.000,2831.76,-752.32,312.64,4851.64,6284.2
2026-01-10 20:41:35.020,2791.84,-791.8800000000001,312.26,4851.76,6284.3
2026-01-10 20:41:35.040,2751.92,-831.44,311.88,4851.88,6284.4
2026-01-10 20:41:35.060,2712.0,-871.0,311.5,4852.0,6284.5
2026-01-10 20:41:35.080,2672.08,-910.56,311.12,4852.12,6284.6
2026-01-10 20:41:35.100,2632.16,-950.1200000000001,310.74,4852.24,6284.7
2026-01-10 20:41:35.120,2592.24,-989.6800000000001,310.36,4852.36,6284.8
2026-01-10 20:41:35.140,2552.3199999999997,-1029.24,309.98,4852.48,6284.9
2026-01-10 20:41:35.160,2512.3999999999996,-1068.8000000000002,309.6,4852.6,6285.0
2026-01-10 20:41:35.180,2472.48,-1108.3600000000001,309.22,4852.72,6285.1
2026-01-10 20:41:35.200,2432.56,-1147.92,308.84,4852.84,6285.2
2026-01-10 20:41:35.220,2392.64,-1187.48,308.46,4852.96,6285.3
2026-01-10 20:41:35.240,2352.7200000000003,-1227.04,308.08,4853.08,6285.4
2026-01-10 20:41:35.260,2312.8,-1266.6000000000001,307.7,4853.2,6285.5
2026-01-10 20:41:35.280,2272.88,-1306.16,307.32,4853.32,6285.6
2026-01-10 20:41:35.300,2232.96,-1345.72,306.94,4853.44,6285.7
2026-01-10 20:41:35.320,2193.04,-1385.2800000000002,306.56,4853.56,6285.8
2026-01-10 20:41:35.340,2153.12,-1424.8400000000001,306.18,4853.68,6285.9
2026-01-10 20:41:35.360,2113.2,-1464.4,305.8,4853.8,6286.0
2026-01-10 20:41:35.380,2073.2799999999997,-1503.96,305.42,4853.92,6286.1
2026-01-10 20:41:35.400,2033.36,-1543.52,305.04,4854.04,6286.2
2026-01-10 20:41:35.420,1993.4399999999998,-1583.0800000000002,304.66,4854.16,6286.3
2026-01-10 20:41:35.440,1953.52,-1622.64,304.28,4854.28,6286.4
2026-01-10 20:41:35.460,1913.6,-1662.2,303.9,4854.4,6286.5
2026-01-10 20:41:35.480,1873.6799999999998,-1701.7600000000002,303.52,4854.52,6286.6
2026-01-10 20:41:35.500,1833.76,-1741.3200000000002,303.14,4854.64,6286.7
2026-01-10 20:41:35.520,1793.84,-1780.88,302.76,4854.76,6286.8
2026-01-10 20:41:35.540,1753.9199999999998,-1820.44,302.38,4854.88,6286.9
2026-01-10 20:41:35.560,1714.0,-1860.0,302.0,4855.0,6287.0
2026-01-10 20:41:35.580,1713.5098039215686,-1860.1568627450981,302.27450980392155,4854.9607843137255,6287.235294117647
2026-01-10 20:41:35.600,1713.0196078431372,-1860.313725490196,302.54901960784315,4854.921568627451,6287.470588235294
2026-01-10 20:41:35.620,1712.5294117647059,-1860.4705882352941,302.8235294117647,4854.882352941177,6287.705882352941
2026-01-10 20:41:35.640,1712.0392156862745,-1860.6274509803923,303.0980392156863,4854.843137254902,6287.941176470588
2026-01-10 20:41:35.660,1711.549019607843,-1860.7843137254902,303.37254901960785,4854.803921568628,6288.176470588235
2026-01-10 20:41:35.680,1711.0588235294117,-1860.9411764705883,303.6470588235294,4854.764705882353,6288.411764705882
2026-01-10 20:41:35.700,1710.5686274509803,-1861.0980392156862,303.921568627451,4854.725490196079,6288.64705882353
2026-01-10 20:41:35.720,1710.078431372549,-1861.2549019607843,304.19607843137254,4854.686274509804,6288.882352941177
2026-01-10 20:41:35.740,1709.5882352941176,-1861.4117647058824,304.47058823529414,4854.64705882353,6289.117647058823
2026-01-10 20:41:35.760,1709.0980392156862,-1861.5686274509803,304.7450980392157,4854.607843137255,6289.35294117647
2026-01-10 20:41:35.780,1708.6078431372548,-1861.7254901960785,305.01960784313724,4854.568627450981,6289.588235294118
2026-01-10 20:41:35.800,1708.1176470588234,-1861.8823529411766,305.29411764705884,4854.529411764706,6289.823529411765
2026-01-10 20:41:35.820,1707.6274509803923,-1862.0392156862745,305.5686274509804,4854.490196078431,6290.058823529412
2026-01-10 20:41:35.840,1707.137254901961,-1862.1960784313726,305.843137254902,4854.450980392156,6290.294117647059
2026-01-10 20:41:35.860,1706.6470588235295,-1862.3529411764705,306.11764705882354,4854.411764705882,6290.529411764706
2026-01-10 20:41:35.880,1706.1568627450981,-1862.5098039215686,306.3921568627451,4854.3725490196075,6290.764705882353
2026-01-10 20:41:35.900,1705.6666666666667,-1862.6666666666667,306.6666666666667,4854.333333333333,6291.0
2026-01-10 20:41:35.920,1705.1764705882354,-1862.8235294117646,306.94117647058823,4854.294117647059,6291.235294117647
2026-01-10 20:41:35.940,1704.686274509804,-1862.9803921568628,307.2156862745098,4854.254901960784,6291.470588235294
2026-01-10 20:41:35.960,1704.1960784313726,-1863.137254901961,307.4901960784314,4854.21568627451,6291.705882352941
2026-01-10 20:41:35.980,1703.7058823529412,-1863.2941176470588,307.7647058823529,4854.176470588235,6291.941176470588
2026-01-10 20:41:36.000,1703.2156862745098,-1863.450980392157,308.03921568627453,4854.137254901961,6292.176470588235
2026-01-10 20:41:36.020,1702.7254901960785,-1863.6078431372548,308.3137254901961,4854.098039215686,6292.411764705882
2026-01-10 20:41:36.040,1702.235294117647,-1863.764705882353,308.5882352941176,4854.058823529412,6292.64705882353
2026-01-10 20:41:36.060,1701.7450980392157,-1863.921568627451,308.8627450980392,4854.019607843137,6292.882352941177
2026-01-10 20:41:36.080,1701.2549019607843,-1864.078431372549,309.1372549019608,4853.980392156863,6293.117647058823
2026-01-10 20:41:36.100,1700.764705882353,-1864.235294117647,309.4117647058824,4853.941176470588,6293.35294117647
2026-01-10 20:41:36.120,1700.2745098039215,-1864.3921568627452,309.6862745098039,4853.901960784314,6293.588235294118
2026-01-10 20:41:36.140,1699.7843137254902,-1864.549019607843,309.96078431372547,4853.862745098039,6293.823529411765
2026-01-10 20:41:36.160,1699.2941176470588,-1864.7058823529412,310.2352941176471,4853.823529411765,6294.058823529412
2026-01-10 20:41:36.180,1698.8039215686274,-1864.862745098039,310.5098039215686,4853.78431372549,6294.294117647059
2026-01-10 20:41:36.200,1698.313725490196,-1865.0196078431372,310.7843137254902,4853.745098039216,6294.529411764706
2026-01-10 20:41:36.220,1697.8235294117646,-1865.1764705882354,311.05882352941177,4853.705882352941,6294.764705882353
2026-01-10 20:41:36.240,1697.3333333333333,-1865.3333333333333,311.3333333333333,4853.666666666667,6295.0
2026-01-10 20:41:36.260,1696.8431372549019,-1865.4901960784314,311.6078431372549,4853.6274509803925,6295.235294117647
2026-01-10 20:41:36.280,1696.3529411764705,-1865.6470588235295,311.88235294117646,4853.588235294118,6295.470588235294
2026-01-10 20:41:36.300,1695.862745098039,-1865.8039215686274,312.15686274509807,4853.549019607844,6295.705882352941
2026-01-10 20:41:36.320,1695.372549019608,-1865.9607843137255,312.4313725490196,4853.509803921569,6295.941176470588
2026-01-10 20:41:36.340,1694.8823529411766,-1866.1176470588234,312.70588235294116,4853.470588235294,6296.176470588235
2026-01-10 20:41:36.360,1694.3921568627452,-1866.2745098039215,312.98039215686276,4853.431372549019,6296.411764705882
2026-01-10 20:41:36.380,1693.9019607843138,-1866.4313725490197,313.2549019607843,4853.392156862745,6296.64705882353
2026-01-10 20:41:36.400,1693.4117647058824,-1866.5882352941176,313.52941176470586,4853.35294117647,6296.882352941177
2026-01-10 20:41:36.420,1692.921568627451,-1866.7450980392157,313.80392156862746,4853.313725490196,6297.117647058823
2026-01-10 20:41:36.440,1692.4313725490197,-1866.9019607843138,314.078431372549,4853.274509803921,6297.35294117647
2026-01-10 20:41:36.460,1691.9411764705883,-1867.0588235294117,314.3529411764706,4853.235294117647,6297.588235294118
2026-01-10 20:41:36.480,1691.450980392157,-1867.2156862745098,314.62745098039215,4853.196078431372,6297.823529411765
2026-01-10 20:41:36.500,1690.9607843137255,-1867.3725490196077,314.9019607843137,4853.156862745098,6298.058823529412
2026-01-10 20:41:36.520,1690.4705882352941,-1867.5294117647059,315.1764705882353,4853.117647058823,6298.294117647059
2026-01-10 20:41:36.540,1689.9803921568628,-1867.686274509804,315.45098039215685,4853.078431372549,6298.529411764706
2026-01-10 20:41:36.560,1689.4901960784314,-1867.8431372549019,315.72549019607845,4853.0392156862745,6298.764705882353
2026-01-10 20:41:36.580,1689.0,-1868.0,316.0,4853.0,6299.0
2026-01-10 20:41:36.600,1729.469387755102,-1868.142857142857,315.6938775510204,4852.959183673469,6299.2040816326535
2026-01-10 20:41:36.620,1769.938775510204,-1868.2857142857142,315.38775510204084,4852.918367346939,6299.408163265306
2026-01-10 20:41:36.640,1810.408163265306,-1868.4285714285713,315.0816326530612,4852.877551020408,6299.6122448979595
2026-01-10 20:41:36.660,1850.8775510204082,-1868.5714285714287,314.7755102040816,4852.836734693878,6299.816326530612
2026-01-10 20:41:36.680,1891.3469387755101,-1868.7142857142858,314.46938775510205,4852.7959183673465,6300.0204081632655
2026-01-10 20:41:36.700,1931.8163265306123,-1868.857142857143,314.16326530612247,4852.755102040816,6300.224489795918
2026-01-10 20:41:36.720,1972.2857142857142,-1869.0,313.85714285714283,4852.714285714285,6300.428571428572
2026-01-10 20:41:36.740,2012.7551020408164,-1869.142857142857,313.55102040816325,4852.673469387755,6300.632653061224
2026-01-10 20:41:36.760,2053.2244897959185,-1869.2857142857142,313.2448979591837,4852.632653061224,6300.836734693878
2026-01-10 20:41:36.780,2093.6938775510203,-1869.4285714285713,312.9387755102041,4852.591836734694,6301.040816326531
2026-01-10 20:41:36.800,2134.1632653061224,-1869.5714285714287,312.6326530612245,4852.551020408163,6301.244897959184
2026-01-10 20:41:36.820,2174.6326530612246,-1869.7142857142858,312.3265306122449,4852.510204081633,6301.448979591837
2026-01-10 20:41:36.840,2215.1020408163267,-1869.857142857143,312.0204081632653,4852.469387755102,6301.65306122449
2026-01-10 20:41:36.860,2255.5714285714284,-1870.0,311.7142857142857,4852.428571428572,6301.857142857143
2026-01-10 20:41:36.880,2296.0408163265306,-1870.142857142857,311.40816326530614,4852.3877551020405,6302.061224489796
2026-01-10 20:41:36.900,2336.5102040816328,-1870.2857142857142,311.1020408163265,4852.34693877551,6302.265306122449
2026-01-10 20:41:36.920,2376.9795918367345,-1870.4285714285713,310.7959183673469,4852.306122448979,6302.469387755102
2026-01-10 20:41:36.940,2417.4489795918366,-1870.5714285714287,310.48979591836735,4852.265306122449,6302.673469387755
2026-01-10 20:41:36.960,2457.918367346939,-1870.7142857142858,310.18367346938777,4852.224489795918,6302.877551020408
2026-01-10 20:41:36.980,2498.387755102041,-1870.857142857143,309.8775510204082,4852.183673469388,6303.081632653061
2026-01-10 20:41:37.000,2538.857142857143,-1871.0,309.57142857142856,4852.142857142857,6303.285714285715
2026-01-10 20:41:37.020,2579.326530612245,-1871.142857142857,309.265306122449,4852.102040816327,6303.489795918367
2026-01-10 20:41:37.040,2619.795918367347,-1871.2857142857142,308.9591836734694,4852.061224489796,6303.693877551021
2026-01-10 20:41:37.060,2660.265306122449,-1871.4285714285713,308.6530612244898,4852.0204081632655,6303.897959183673
2026-01-10 20:41:37.080,2700.734693877551,-1871.5714285714287,308.3469387755102,4851.9795918367345,6304.102040816327
2026-01-10 20:41:37.100,2741.204081632653,-1871.7142857142858,308.0408163265306,4851.938775510204,6304.306122448979
2026-01-10 20:41:37.120,2781.673469387755,-1871.857142857143,307.734693877551,4851.897959183673,6304.510204081633
2026-01-10 20:41:37.140,2822.142857142857,-1872.0,307.42857142857144,4851.857142857143,6304.714285714285
2026-01-10 20:41:37.160,2862.6122448979595,-1872.142857142857,307.1224489795918,4851.816326530612,6304.918367346939
2026-01-10 20:41:37.180,2903.081632653061,-1872.2857142857142,306.81632653061223,4851.775510204082,6305.122448979592
2026-01-10 20:41:37.200,2943.5510204081634,-1872.4285714285713,306.51020408163265,4851.734693877551,6305.326530612245
2026-01-10 20:41:37.220,2984.0204081632655,-1872.5714285714287,306.2040816326531,4851.693877551021,6305.530612244898
2026-01-10 20:41:37.240,3024.4897959183672,-1872.7142857142858,305.8979591836735,4851.65306122449,6305.734693877551
2026-01-10 20:41:37.260,3064.9591836734694,-1872.857142857143,305.59183673469386,4851.6122448979595,6305.938775510204
2026-01-10 20:41:37.280,3105.4285714285716,-1873.0,305.2857142857143,4851.571428571428,6306.142857142857
2026-01-10 20:41:37.300,3145.8979591836733,-1873.142857142857,304.9795918367347,4851.530612244898,6306.34693877551
2026-01-10 20:41:37.320,3186.3673469387754,-1873.2857142857142,304.6734693877551,4851.489795918367,6306.551020408163
2026-01-10 20:41:37.340,3226.8367346938776,-1873.4285714285713,304.3673469387755,4851.448979591837,6306.755102040816
2026-01-10 20:41:37.360,3267.3061224489793,-1873.5714285714287,304.0612244897959,4851.408163265306,6306.959183673469
2026-01-10 20:41:37.380,3307.775510204082,-1873.7142857142858,303.7551020408163,4851.367346938776,6307.163265306122
2026-01-10 20:41:37.400,3348.2448979591836,-1873.857142857143,303.44897959183675,4851.326530612245,6307.367346938776
2026-01-10 20:41:37.420,3388.714285714286,-1874.0,303.14285714285717,4851.285714285715,6307.571428571428
2026-01-10 20:41:37.440,3429.183673469388,-1874.142857142857,302.83673469387753,4851.244897959184,6307.775510204082
2026-01-10 20:41:37.460,3469.6530612244896,-1874.2857142857142,302.53061224489795,4851.2040816326535,6307.9795918367345
2026-01-10 20:41:37.480,3510.122448979592,-1874.4285714285713,302.2244897959184,4851.163265306122,6308.183673469388
2026-01-10 20:41:37.500,3550.591836734694,-1874.5714285714287,301.9183673469388,4851.122448979592,6308.3877551020405
2026-01-10 20:41:37.520,3591.0612244897957,-1874.7142857142858,301.61224489795916,4851.081632653061,6308.591836734694
2026-01-10 20:41:37.540,3631.530612244898,-1874.857142857143,301.3061224489796,4851.040816326531,6308.7959183673465
2026-01-10 20:41:37.560,3672.0,-1875.0,301.0,4851.0,6309.0
2026-01-10 20:41:37.580,3672.32,-1874.56,300.78,4850.98,6308.76
2026-01-10 20:41:37.600,3672.64,-1874.12,300.56,4850.96,6308.52
2026-01-10 20:41:37.620,3672.96,-1873.68,300.34,4850.94,6308.28
2026-01-10 20:41:37.640,3673.28,-1873.24,300.12,4850.92,6308.04
2026-01-10 20:41:37.660,3673.6,-1872.8,299.9,4850.9,6307.8
2026-01-10 20:41:37.680,3673.92,-1872.36,299.68,4850.88,6307.56
2026-01-10 20:41:37.700,3674.24,-1871.92,299.46,4850.86,6307.32
2026-01-10 20:41:37.720,3674.56,-1871.48,299.24,4850.84,6307.08
2026-01-10 20:41:37.740,3674.88,-1871.04,299.02,4850.82,6306.84
2026-01-10 20:41:37.760,3675.2,-1870.6,298.8,4850.8,6306.6
2026-01-10 20:41:37.780,3675.52,-1870.16,298.58,4850.78,6306.36
2026-01-10 20:41:37.800,3675.84,-1869.72,298.36,4850.76,6306.12
2026-01-10 20:41:37.820,3676.16,-1869.28,298.14,4850.74,6305.88
2026-01-10 20:41:37.840,3676.48,-1868.84,297.92,4850.72,6305.64
2026-01-10 20:41:37.860,3676.8,-1868.4,297.7,4850.7,6305.4
2026-01-10 20:41:37.880,3677.12,-1867.96,297.48,4850.68,6305.16
2026-01-10 20:41:37.900,3677.44,-1867.52,297.26,4850.66,6304.92
2026-01-10 20:41:37.920,3677.76,-1867.08,297.04,4850.64,6304.68
2026-01-10 20:41:37.940,3678.08,-1866.64,296.82,4850.62,6304.44
2026-01-10 20:41:37.960,3678.4,-1866.2,296.6,4850.6,6304.2
2026-01-10 20:41:37.980,3678.72,-1865.76,296.38,4850.58,6303.96
2026-01-10 20:41:38.000,3679.04,-1865.32,296.16,4850.56,6303.72
2026-01-10 20:41:38.020,3679.36,-1864.88,295.94,4850.54,6303.48
2026-01-10 20:41:38.040,3679.68,-1864.44,295.72,4850.52,6303.24
2026-01-10 20:41:38.060,3680.0,-1864.0,295.5,4850.5,6303.0
2026-01-10 20:41:38.080,3680.32,-1863.56,295.28,4850.48,6302.76
2026-01-10 20:41:38.100,3680.64,-1863.12,295.06,4850.46,6302.52
2026-01-10 20:41:38.120,3680.96,-1862.68,294.84,4850.44,6302.28
2026-01-10 20:41:38.140,3681.28,-1862.24,294.62,4850.42,6302.04
2026-01-10 20:41:38.160,3681.6,-1861.8,294.4,4850.4,6301.8
2026-01-10 20:41:38.180,3681.92,-1861.36,294.18,4850.38,6301.56
2026-01-10 20:41:38.200,3682.24,-1860.92,293.96,4850.36,6301.32
2026-01-10 20:41:38.220,3682.56,-1860.48,293.74,4850.34,6301.08
2026-01-10 20:41:38.240,3682.88,-1860.04,293.52,4850.32,6300.84
2026-01-10 20:41:38.260,3683.2,-1859.6,293.3,4850.3,6300.6
2026-01-10 20:41:38.280,3683.52,-1859.16,293.08,4850.28,6300.36
2026-01-10 20:41:38.300,3683.84,-1858.72,292.86,4850.26,6300.12
2026-01-10 20:41:38.320,3684.16,-1858.28,292.64,4850.24,6299.88
2026-01-10 20:41:38.340,3684.48,-1857.84,292.42,4850.22,6299.64
2026-01-10 20:41:38.360,3684.8,-1857.4,292.2,4850.2,6299.4
2026-01-10 20:41:38.380,3685.12,-1856.96,291.98,4850.18,6299.16
2026-01-10 20:41:38.400,3685.44,-1856.52,291.76,4850.16,6298.92
2026-01-10 20:41:38.420,3685.76,-1856.08,291.54,4850.14,6298.68
2026-01-10 20:41:38.440,3686.08,-1855.64,291.32,4850.12,6298.44
2026-01-10 20:41:38.460,3686.4,-1855.2,291.1,4850.1,6298.2
2026-01-10 20:41:38.480,3686.72,-1854.76,290.88,4850.08,6297.96
2026-01-10 20:41:38.500,3687.04,-1854.32,290.66,4850.06,6297.72
2026-01-10 20:41:38.520,3687.36,-1853.88,290.44,4850.04,6297.48
2026-01-10 20:41:38.540,3687.68,-1853.44,290.22,4850.02,6297.24
2026-01-10 20:41:38.560,3688.0,-1853.0,290.0,4850.0,6297.0
2026-01-10 20:41:38.580,3649.274509803922,-1854.2549019607843,252.19607843137254,4850.058823529412,6297.235294117647
2026-01-10 20:41:38.600,3610.549019607843,-1855.5098039215686,214.39215686274508,4850.117647058823,6297.470588235294
2026-01-10 20:41:38.620,3571.823529411765,-1856.764705882353,176.58823529411765,4850.176470588235,6297.705882352941
2026-01-10 20:41:38.640,3533.098039215686,-1858.0196078431372,138.7843137254902,4850.235294117647,6297.941176470588
2026-01-10 20:41:38.660,3494.372549019608,-1859.2745098039215,100.98039215686273,4850.294117647059,6298.176470588235
2026-01-10 20:41:38.680,3455.6470588235293,-1860.5294117647059,63.176470588235304,4850.35294117647,6298.411764705882
2026-01-10 20:41:38.700,3416.921568627451,-1861.7843137254902,25.372549019607845,4850.411764705882,6298.64705882353
2026-01-10 20:41:38.720,3378.1960784313724,-1863.0392156862745,-12.431372549019613,4850.470588235294,6298.882352941177
2026-01-10 20:41:38.740,3339.470588235294,-1864.2941176470588,-50.23529411764707,4850.529411764706,6299.117647058823
2026-01-10 20:41:38.760,3300.745098039216,-1865.549019607843,-88.03921568627453,4850.588235294118,6299.35294117647
2026-01-10 20:41:38.780,3262.0196078431372,-1866.8039215686274,-125.84313725490199,4850.64705882353,6299.588235294118
2026-01-10 20:41:38.800,3223.2941176470586,-1868.0588235294117,-163.6470588235294,4850.705882352941,6299.823529411765
2026-01-10 20:41:38.820,3184.5686274509803,-1869.313725490196,-201.45098039215685,4850.764705882353,6300.058823529412
2026-01-10 20:41:38.840,3145.843137254902,-1870.5686274509803,-239.2549019607843,4850.823529411765,6300.294117647059
2026-01-10 20:41:38.860,3107.1176470588234,-1871.8235294117646,-277.0588235294118,4850.882352941177,6300.529411764706
2026-01-10 20:41:38.880,3068.392156862745,-1873.078431372549,-314.8627450980392,4850.941176470588,6300.764705882353
2026-01-10 20:41:38.900,3029.6666666666665,-1874.3333333333333,-352.66666666666663,4851.0,6301.0
2026-01-10 20:41:38.920,2990.9411764705883,-1875.5882352941176,-390.47058823529414,4851.058823529412,6301.235294117647
2026-01-10 20:41:38.940,2952.2156862745096,-1876.8431372549019,-428.27450980392155,4851.117647058823,6301.470588235294
2026-01-10 20:41:38.960,2913.4901960784314,-1878.0980392156862,-466.07843137254906,4851.176470588235,6301.705882352941
2026-01-10 20:41:38.980,2874.764705882353,-1879.3529411764705,-503.88235294117646,4851.235294117647,6301.941176470588
2026-01-10 20:41:39.000,2836.0392156862745,-1880.6078431372548,-541.686274509804,4851.294117647059,6302.176470588235
2026-01-10 20:41:39.020,2797.313725490196,-1881.862745098039,-579.4901960784314,4851.35294117647,6302.411764705882
2026-01-10 20:41:39.040,2758.5882352941176,-1883.1176470588234,-617.2941176470588,4851.411764705882,6302.64705882353
2026-01-10 20:41:39.060,2719.8627450980393,-1884.3725490196077,-655.0980392156863,4851.470588235294,6302.882352941177
2026-01-10 20:41:39.080,2681.1372549019607,-1885.627450980392,-692.9019607843137,4851.529411764706,6303.117647058823
2026-01-10 20:41:39.100,2642.4117647058824,-1886.8823529411766,-730.7058823529412,4851.588235294118,6303.35294117647
2026-01-10 20:41:39.120,2603.686274509804,-1888.137254901961,-768.5098039215686,4851.64705882353,6303.588235294118
2026-01-10 20:41:39.140,2564.9607843137255,-1889.3921568627452,-806.313725490196,4851.705882352941,6303.823529411765
2026-01-10 20:41:39.160,2526.235294117647,-1890.6470588235295,-844.1176470588236,4851.764705882353,6304.058823529412
2026-01-10 20:41:39.180,2487.5098039215686,-1891.9019607843138,-881.921568627451,4851.823529411765,6304.294117647059
2026-01-10 20:41:39.200,2448.7843137254904,-1893.1568627450981,-919.7254901960785,4851.882352941177,6304.529411764706
2026-01-10 20:41:39.220,2410.0588235294117,-1894.4117647058824,-957.5294117647059,4851.941176470588,6304.764705882353
2026-01-10 20:41:39.240,2371.333333333333,-1895.6666666666667,-995.3333333333333,4852.0,6305.0
2026-01-10 20:41:39.260,2332.607843137255,-1896.921568627451,-1033.137254901961,4852.058823529412,6305.235294117647
2026-01-10 20:41:39.280,2293.8823529411766,-1898.1764705882354,-1070.9411764705883,4852.117647058823,6305.470588235294
2026-01-10 20:41:39.300,2255.156862745098,-1899.4313725490197,-1108.7450980392157,4852.176470588235,6305.705882352941
2026-01-10 20:41:39.320,2216.4313725490197,-1900.686274509804,-1146.549019607843,4852.235294117647,6305.941176470588
2026-01-10 20:41:39.340,2177.7058823529414,-1901.9411764705883,-1184.3529411764707,4852.294117647059,6306.176470588235
2026-01-10 20:41:39.360,2138.9803921568628,-1903.1960784313726,-1222.1568627450981,4852.35294117647,6306.411764705882
2026-01-10 20:41:39.380,2100.254901960784,-1904.450980392157,-1259.9607843137255,4852.411764705882,6306.64705882353
2026-01-10 20:41:39.400,2061.529411764706,-1905.7058823529412,-1297.764705882353,4852.470588235294,6306.882352941177
2026-01-10 20:41:39.420,2022.8039215686274,-1906.9607843137255,-1335.5686274509803,4852.529411764706,6307.117647058823
2026-01-10 20:41:39.440,1984.078431372549,-1908.2156862745098,-1373.372549019608,4852.588235294118,6307.35294117647
2026-01-10 20:41:39.460,1945.3529411764705,-1909.4705882352941,-1411.1764705882354,4852.64705882353,6307.588235294118
2026-01-10 20:41:39.480,1906.627450980392,-1910.7254901960785,-1448.9803921568628,4852.705882352941,6307.823529411765
2026-01-10 20:41:39.500,1867.9019607843136,-1911.9803921568628,-1486.7843137254902,4852.764705882353,6308.058823529412
2026-01-10 20:41:39.520,1829.1764705882351,-1913.235294117647,-1524.5882352941176,4852.823529411765,6308.294117647059
2026-01-10 20:41:39.540,1790.450980392157,-1914.4901960784314,-1562.3921568627452,4852.882352941177,6308.529411764706
2026-01-10 20:41:39.560,1751.7254901960785,-1915.7450980392157,-1600.1960784313726,4852.941176470588,6308.764705882353
2026-01-10 20:41:39.580,1713.0,-1917.0,-1638.0,4853.0,6309.0
2026-01-10 20:41:39.600,1756.5294117647059,-1840.686274509804,-1605.4117647058824,4853.081632653061,6309.040816326531
2026-01-10 20:41:39.620,1800.0588235294117,-1764.372549019608,-1572.8235294117646,4853.163265306122,6309.081632653061
2026-01-10 20:41:39.640,1843.5882352941176,-1688.0588235294117,-1540.235294117647,4853.244897959184,6309.122448979592
2026-01-10 20:41:39.660,1887.1176470588234,-1611.7450980392157,-1507.6470588235295,4853.326530612245,6309.163265306122
2026-01-10 20:41:39.680,1930.6470588235295,-1535.4313725490197,-1475.0588235294117,4853.408163265306,6309.2040816326535
2026-01-10 20:41:39.700,1974.1764705882354,-1459.1176470588234,-1442.4705882352941,4853.489795918367,6309.244897959184
2026-01-10 20:41:39.720,2017.7058823529412,-1382.8039215686274,-1409.8823529411766,4853.571428571428,6309.285714285715
2026-01-10 20:41:39.740,2061.235294117647,-1306.4901960784314,-1377.2941176470588,4853.65306122449,6309.326530612245
2026-01-10 20:41:39.760,2104.764705882353,-1230.1764705882354,-1344.7058823529412,4853.734693877551,6309.367346938776
2026-01-10 20:41:39.780,2148.294117647059,-1153.8627450980393,-1312.1176470588234,4853.816326530612,6309.408163265306
2026-01-10 20:41:39.800,2191.823529411765,-1077.549019607843,-1279.5294117647059,4853.897959183673,6309.448979591837
2026-01-10 20:41:39.820,2235.3529411764707,-1001.2352941176471,-1246.9411764705883,4853.9795918367345,6309.489795918367
2026-01-10 20:41:39.840,2278.8823529411766,-924.921568627451,-1214.3529411764707,4854.061224489796,6309.530612244898
2026-01-10 20:41:39.860,2322.4117647058824,-848.6078431372548,-1181.764705882353,4854.142857142857,6309.571428571428
2026-01-10 20:41:39.880,2365.9411764705883,-772.2941176470588,-1149.1764705882354,4854.224489795918,6309.6122448979595
2026-01-10 20:41:39.900,2409.470588235294,-695.9803921568628,-1116.5882352941176,4854.306122448979,6309.65306122449
2026-01-10 20:41:39.920,2453.0,-619.6666666666667,-1084.0,4854.3877551020405,6309.693877551021
2026-01-10 20:41:39.940,2496.529411764706,-543.3529411764707,-1051.4117647058824,4854.469387755102,6309.734693877551
2026-01-10 20:41:39.960,2540.0588235294117,-467.0392156862745,-1018.8235294117648,4854.551020408163,6309.775510204082
2026-01-10 20:41:39.980,2583.5882352941176,-390.72549019607845,-986.2352941176471,4854.632653061224,6309.816326530612
2026-01-10 20:41:40.000,2627.1176470588234,-314.41176470588243,-953.6470588235295,4854.714285714285,6309.857142857143
2026-01-10 20:41:40.020,2670.6470588235297,-238.09803921568619,-921.0588235294118,4854.7959183673465,6309.897959183673
2026-01-10 20:41:40.040,2714.176470588235,-161.78431372549016,-888.4705882352941,4854.877551020408,6309.938775510204
2026-01-10 20:41:40.060,2757.7058823529414,-85.47058823529414,-855.8823529411766,4854.959183673469,6309.9795918367345
2026-01-10 20:41:40.080,2801.235294117647,-9.156862745098124,-823.2941176470589,4855.040816326531,6310.0204081632655
2026-01-10 20:41:40.100,2844.764705882353,67.1568627450979,-790.7058823529412,4855.122448979592,6310.061224489796
2026-01-10 20:41:40.120,2888.2941176470586,143.47058823529414,-758.1176470588235,4855.2040816326535,6310.102040816327
2026-01-10 20:41:40.140,2931.823529411765,219.7843137254904,-725.529411764706,4855.285714285715,6310.142857142857
2026-01-10 20:41:40.160,2975.3529411764707,296.0980392156862,-692.9411764705883,4855.367346938776,6310.183673469388
2026-01-10 20:41:40.180,3018.8823529411766,372.41176470588243,-660.3529411764706,4855.448979591837,6310.224489795918
2026-01-10 20:41:40.200,3062.4117647058824,448.7254901960782,-627.764705882353,4855.530612244898,6310.265306122449
2026-01-10 20:41:40.220,3105.9411764705883,525.0392156862745,-595.1764705882354,4855.6122448979595,6310.306122448979
2026-01-10 20:41:40.240,3149.470588235294,601.3529411764707,-562.5882352941178,4855.693877551021,6310.34693877551
2026-01-10 20:41:40.260,3193.0,677.6666666666665,-530.0,4855.775510204082,6310.3877551020405
2026-01-10 20:41:40.280,3236.529411764706,753.9803921568628,-497.41176470588243,4855.857142857143,6310.428571428572
2026-01-10 20:41:40.300,3280.0588235294117,830.2941176470586,-464.82352941176487,4855.938775510204,6310.469387755102
2026-01-10 20:41:40.320,3323.588235294118,906.6078431372548,-432.2352941176471,4856.0204081632655,6310.510204081633
2026-01-10 20:41:40.340,3367.1176470588234,982.921568627451,-399.6470588235295,4856.102040816327,6310.551020408163
2026-01-10 20:41:40.360,3410.6470588235297,1059.2352941176468,-367.05882352941194,4856.183673469388,6310.591836734694
2026-01-10 20:41:40.380,3454.176470588235,1135.549019607843,-334.47058823529414,4856.265306122449,6310.632653061224
2026-01-10 20:41:40.400,3497.7058823529414,1211.8627450980393,-301.8823529411766,4856.34693877551,6310.673469387755
2026-01-10 20:41:40.420,3541.235294117647,1288.1764705882351,-269.294117647059,4856.428571428572,6310.714285714285
2026-01-10 20:41:40.440,3584.764705882353,1364.4901960784314,-236.70588235294122,4856.510204081633,6310.755102040816
2026-01-10 20:41:40.460,3628.294117647059,1440.8039215686276,-204.11764705882365,4856.591836734694,6310.7959183673465
2026-01-10 20:41:40.480,3671.823529411765,1517.1176470588234,-171.52941176470608,4856.673469387755,6310.836734693878
2026-01-10 20:41:40.500,3715.3529411764707,1593.4313725490197,-138.9411764705883,4856.755102040816,6310.877551020408
2026-01-10 20:41:40.520,3758.8823529411766,1669.7450980392155,-106.35294117647072,4856.836734693878,6310.918367346939
2026-01-10 20:41:40.540,3802.4117647058824,1746.0588235294117,-73.76470588235316,4856.918367346939,6310.959183673469
2026-01-10 20:41:40.560,3845.9411764705883,1822.372549019608,-41.17647058823536,4857.0,6311.0
2026-01-10 20:41:40.580,3889.470588235294,1898.6862745098038,-8.588235294117794,4857.2307692307695,6310.510204081633
2026-01-10 20:41:40.600,3933.0,1975.0,24.0,4857.461538461538,6310.0204081632655
2026-01-10 20:41:40.620,3927.72,1898.26,29.36,4857.692307692308,6309.530612244898
2026-01-10 20:41:40.640,3922.44,1821.52,34.72,4857.923076923077,6309.040816326531
2026-01-10 20:41:40.660,3917.16,1744.78,40.08,4858.153846153846,6308.551020408163
2026-01-10 20:41:40.680,3911.88,1668.04,45.44,4858.384615384615,6308.061224489796
2026-01-10 20:41:40.700,3906.6,1591.3,50.8,4858.615384615385,6307.571428571428
2026-01-10 20:41:40.720,3901.32,1514.56,56.160000000000004,4858.846153846154,6307.081632653061
2026-01-10 20:41:40.740,3896.04,1437.8200000000002,61.52,4859.076923076923,6306.591836734694
2026-01-10 20:41:40.760,3890.76,1361.08,66.88,4859.307692307692,6306.102040816327
2026-01-10 20:41:40.780,3885.48,1284.3400000000001,72.24000000000001,4859.538461538462,6305.6122448979595
2026-01-10 20:41:40.800,3880.2,1207.6,77.6,4859.7692307692305,6305.122448979592
2026-01-10 20:41:40.820,3874.92,1130.8600000000001,82.96000000000001,4860.0,6304.632653061224
2026-01-10 20:41:40.840,3869.64,1054.1200000000001,88.32000000000001,4860.2307692307695,6304.142857142857
2026-01-10 20:41:40.860,3864.36,977.3800000000001,93.68,4860.461538461538,6303.65306122449
2026-01-10 20:41:40.880,3859.08,900.6400000000001,99.04,4860.692307692308,6303.163265306122
2026-01-10 20:41:40.900,3853.8,823.9000000000001,104.4,4860.923076923077,6302.673469387755
2026-01-10 20:41:40.920,3848.52,747.1600000000001,109.76,4861.153846153846,6302.183673469388
2026-01-10 20:41:40.940,3843.24,670.4200000000001,115.12,4861.384615384615,6301.693877551021
2026-01-10 20:41:40.960,3837.96,593.6800000000001,120.48,4861.615384615385,6301.2040816326535
2026-01-10 20:41:40.980,3832.68,516.94,125.84,4861.846153846154,6300.714285714285
2026-01-10 20:41:41.000,3827.4,440.20000000000005,131.2,4862.076923076923,6300.224489795918
2026-01-10 20:41:41.020,3822.12,363.46000000000004,136.56,4862.307692307692,6299.734693877551
2026-01-10 20:41:41.040,3816.84,286.72,141.92000000000002,4862.538461538462,6299.244897959184
2026-01-10 20:41:41.060,3811.56,209.98000000000002,147.28,4862.7692307692305,6298.755102040816
2026-01-10 20:41:41.080,3806.28,133.24000000000024,152.64000000000001,4863.0,6298.265306122449
2026-01-10 20:41:41.100,3801.0,56.50000000000023,158.0,4863.2307692307695,6297.775510204082
2026-01-10 20:41:41.120,3795.72,-20.23999999999978,163.36,4863.461538461538,6297.285714285715
2026-01-10 20:41:41.140,3790.44,-96.98000000000002,168.72,4863.692307692308,6296.7959183673465
2026-01-10 20:41:41.160,3785.16,-173.7199999999998,174.08,4863.923076923077,6296.306122448979
2026-01-10 20:41:41.180,3779.88,-250.46000000000004,179.44,4864.153846153846,6295.816326530612
2026-01-10 20:41:41.200,3774.6,-327.1999999999998,184.8,4864.384615384615,6295.326530612245
2026-01-10 20:41:41.220,3769.32,-403.94000000000005,190.16,4864.615384615385,6294.836734693878
2026-01-10 20:41:41.240,3764.04,-480.67999999999984,195.52,4864.846153846154,6294.34693877551
2026-01-10 20:41:41.260,3758.76,-557.4199999999996,200.88000000000002,4865.076923076923,6293.857142857143
2026-01-10 20:41:41.280,3753.48,-634.1599999999999,206.24,4865.307692307692,6293.367346938776
2026-01-10 20:41:41.300,3748.2,-710.8999999999996,211.60000000000002,4865.538461538462,6292.877551020408
2026-01-10 20:41:41.320,3742.92,-787.6399999999999,216.96,4865.7692307692305,6292.3877551020405
2026-01-10 20:41:41.340,3737.64,-864.3799999999997,222.32000000000002,4866.0,6291.897959183673
2026-01-10 20:41:41.360,3732.36,-941.1199999999999,227.68,4866.2307692307695,6291.408163265306
2026-01-10 20:41:41.380,3727.08,-1017.8599999999997,233.04000000000002,4866.461538461538,6290.918367346939
2026-01-10 20:41:41.400,3721.8,-1094.6,238.4,4866.692307692308,6290.428571428572
2026-01-10 20:41:41.420,3716.52,-1171.3399999999997,243.76000000000002,4866.923076923077,6289.938775510204
2026-01-10 20:41:41.440,3711.24,-1248.08,249.12,4867.153846153846,6289.448979591837
2026-01-10 20:41:41.460,3705.96,-1324.8199999999997,254.48000000000002,4867.384615384615,6288.959183673469
2026-01-10 20:41:41.480,3700.68,-1401.56,259.84000000000003,4867.615384615385,6288.469387755102
2026-01-10 20:41:41.500,3695.4,-1478.2999999999997,265.20000000000005,4867.846153846154,6287.9795918367345
2026-01-10 20:41:41.520,3690.12,-1555.04,270.56,4868.076923076923,6287.489795918367
2026-01-10 20:41:41.540,3684.84,-1631.7799999999997,275.92,4868.307692307692,6287.0
2026-01-10 20:41:41.560,3679.56,-1708.5199999999995,281.28000000000003,4868.538461538462,6287.134615384615
2026-01-10 20:41:41.580,3674.2799999999997,-1785.2599999999998,286.64000000000004,4868.7692307692305,6287.2692307692305
2026-01-10 20:41:41.600,3669.0,-1862.0,292.0,4869.0,6287.403846153846
2026-01-10 20:41:41.620,3628.6530612244896,-1863.0408163265306,293.40816326530614,4868.877551020408,6287.538461538462
2026-01-10 20:41:41.640,3588.3061224489797,-1864.0816326530612,294.81632653061223,4868.755102040816,6287.673076923077
2026-01-10 20:41:41.660,3547.9591836734694,-1865.1224489795918,296.2244897959184,4868.632653061224,6287.807692307692
2026-01-10 20:41:41.680,3507.612244897959,-1866.1632653061224,297.6326530612245,4868.510204081633,6287.942307692308
2026-01-10 20:41:41.700,3467.265306122449,-1867.204081632653,299.0408163265306,4868.3877551020405,6288.076923076923
2026-01-10 20:41:41.720,3426.918367346939,-1868.2448979591836,300.44897959183675,4868.265306122449,6288.211538461538
2026-01-10 20:41:41.740,3386.5714285714284,-1869.2857142857142,301.85714285714283,4868.142857142857,6288.346153846154
2026-01-10 20:41:41.760,3346.2244897959185,-1870.3265306122448,303.265306122449,4868.0204081632655,6288.4807692307695
2026-01-10 20:41:41.780,3305.877551020408,-1871.3673469387754,304.6734693877551,4867.897959183673,6288.615384615385
2026-01-10 20:41:41.800,3265.530612244898,-1872.408163265306,306.0816326530612,4867.775510204082,6288.75
2026-01-10 20:41:41.820,3225.183673469388,-1873.4489795918366,307.48979591836735,4867.65306122449,6288.884615384615
2026-01-10 20:41:41.840,3184.8367346938776,-1874.4897959183672,308.8979591836735,4867.530612244898,6289.0192307692305
2026-01-10 20:41:41.860,3144.4897959183672,-1875.530612244898,310.3061224489796,4867.408163265306,6289.153846153846
2026-01-10 20:41:41.880,3104.142857142857,-1876.5714285714287,311.7142857142857,4867.285714285715,6289.288461538462
2026-01-10 20:41:41.900,3063.795918367347,-1877.6122448979593,313.1224489795918,4867.163265306122,6289.423076923077
2026-01-10 20:41:41.920,3023.4489795918366,-1878.6530612244899,314.53061224489795,4867.040816326531,6289.557692307692
2026-01-10 20:41:41.940,2983.1020408163267,-1879.6938775510205,315.9387755102041,4866.918367346939,6289.692307692308
2026-01-10 20:41:41.960,2942.7551020408164,-1880.734693877551,317.3469387755102,4866.7959183673465,6289.826923076923
2026-01-10 20:41:41.980,2902.408163265306,-1881.7755102040817,318.7551020408163,4866.673469387755,6289.961538461538
2026-01-10 20:41:42.000,2862.0612244897957,-1882.8163265306123,320.16326530612247,4866.551020408163,6290.096153846154
2026-01-10 20:41:42.020,2821.714285714286,-1883.857142857143,321.57142857142856,4866.428571428572,6290.2307692307695
2026-01-10 20:41:42.040,2781.3673469387754,-1884.8979591836735,322.9795918367347,4866.306122448979,6290.365384615385
2026-01-10 20:41:42.060,2741.0204081632655,-1885.938775510204,324.38775510204084,4866.183673469388,6290.5
2026-01-10 20:41:42.080,2700.673469387755,-1886.9795918367347,325.7959183673469,4866.061224489796,6290.634615384615
2026-01-10 20:41:42.100,2660.326530612245,-1888.0204081632653,327.2040816326531,4865.938775510204,6290.7692307692305
2026-01-10 20:41:42.120,2619.9795918367345,-1889.061224489796,328.61224489795916,4865.816326530612,6290.903846153846
2026-01-10 20:41:42.140,2579.6326530612246,-1890.1020408163265,330.0204081632653,4865.693877551021,6291.038461538462
2026-01-10 20:41:42.160,2539.285714285714,-1891.142857142857,331.42857142857144,4865.571428571428,6291.173076923077
2026-01-10 20:41:42.180,2498.9387755102043,-1892.1836734693877,332.83673469387753,4865.448979591837,6291.307692307692
2026-01-10 20:41:42.200,2458.591836734694,-1893.2244897959183,334.2448979591837,4865.326530612245,6291.442307692308
2026-01-10 20:41:42.220,2418.2448979591836,-1894.265306122449,335.6530612244898,4865.2040816326535,6291.576923076923
2026-01-10 20:41:42.240,2377.8979591836733,-1895.3061224489795,337.0612244897959,4865.081632653061,6291.711538461538
2026-01-10 20:41:42.260,2337.5510204081634,-1896.3469387755101,338.46938775510205,4864.959183673469,6291.846153846154
2026-01-10 20:41:42.280,2297.204081632653,-1897.3877551020407,339.8775510204082,4864.836734693878,6291.9807692307695
2026-01-10 20:41:42.300,2256.857142857143,-1898.4285714285713,341.2857142857143,4864.714285714285,6292.115384615385
2026-01-10 20:41:42.320,2216.5102040816328,-1899.469387755102,342.6938775510204,4864.591836734694,6292.25
2026-01-10 20:41:42.340,2176.1632653061224,-1900.5102040816328,344.1020408163265,4864.469387755102,6292.384615384615
2026-01-10 20:41:42.360,2135.816326530612,-1901.5510204081634,345.51020408163265,4864.34693877551,6292.5192307692305
2026-01-10 20:41:42.380,2095.469387755102,-1902.591836734694,346.9183673469388,4864.224489795918,6292.653846153846
2026-01-10 20:41:42.400,2055.122448979592,-1903.6326530612246,348.3265306122449,4864.102040816327,6292.788461538462
2026-01-10 20:41:42.420,2014.7755102040817,-1904.6734693877552,349.734693877551,4863.9795918367345,6292.923076923077
2026-01-10 20:41:42.440,1974.4285714285716,-1905.7142857142858,351.14285714285717,4863.857142857143,6293.057692307692
2026-01-10 20:41:42.460,1934.0816326530612,-1906.7551020408164,352.55102040816325,4863.734693877551,6293.192307692308
2026-01-10 20:41:42.480,1893.734693877551,-1907.795918367347,353.9591836734694,4863.6122448979595,6293.326923076923
2026-01-10 20:41:42.500,1853.387755102041,-1908.8367346938776,355.36734693877554,4863.489795918367,6293.461538461538
2026-01-10 20:41:42.520,1813.0408163265306,-1909.8775510204082,356.7755102040816,4863.367346938776,6293.596153846154
2026-01-10 20:41:42.540,1772.6938775510205,-1910.9183673469388,358.18367346938777,4863.244897959184,6293.7307692307695
2026-01-10 20:41:42.560,1732.3469387755104,-1911.9591836734694,359.59183673469386,4863.122448979592,6293.865384615385
2026-01-10 20:41:42.580,1692.0,-1913.0,361.0,4863.0,6294.0
2026-01-10 20:41:42.600,1730.3461538461538,-1911.7115384615386,360.8076923076923,4862.9807692307695,6293.865384615385
2026-01-10 20:41:42.620,1768.6923076923076,-1910.423076923077,360.61538461538464,4862.961538461538,6293.7307692307695
2026-01-10 20:41:42.640,1807.0384615384614,-1909.1346153846155,360.4230769230769,4862.942307692308,6293.596153846154
2026-01-10 20:41:42.660,1845.3846153846155,-1907.8461538461538,360.2307692307692,4862.923076923077,6293.461538461538
2026-01-10 20:41:42.680,1883.7307692307693,-1906.5576923076924,360.03846153846155,4862.903846153846,6293.326923076923
2026-01-10 20:41:42.700,1922.076923076923,-1905.2692307692307,359.84615384615387,4862.884615384615,6293.192307692308
2026-01-10 20:41:42.720,1960.423076923077,-1903.9807692307693,359.65384615384613,4862.865384615385,6293.057692307692
2026-01-10 20:41:42.740,1998.7692307692307,-1902.6923076923076,359.46153846153845,4862.846153846154,6292.923076923077
2026-01-10 20:41:42.760,2037.1153846153848,-1901.4038461538462,359.2692307692308,4862.826923076923,6292.788461538462
2026-01-10 20:41:42.780,2075.4615384615386,-1900.1153846153845,359.0769230769231,4862.807692307692,6292.653846153846
2026-01-10 20:41:42.800,2113.8076923076924,-1898.826923076923,358.88461538461536,4862.788461538462,6292.5192307692305
2026-01-10 20:41:42.820,2152.153846153846,-1897.5384615384614,358.6923076923077,4862.7692307692305,6292.384615384615
2026-01-10 20:41:42.840,2190.5,-1896.25,358.5,4862.75,6292.25
2026-01-10 20:41:42.860,2228.846153846154,-1894.9615384615386,358.3076923076923,4862.7307692307695,6292.115384615385
2026-01-10 20:41:42.880,2267.1923076923076,-1893.673076923077,358.11538461538464,4862.711538461538,6291.9807692307695
2026-01-10 20:41:42.900,2305.5384615384614,-1892.3846153846155,357.9230769230769,4862.692307692308,6291.846153846154
2026-01-10 20:41:42.920,2343.8846153846152,-1891.0961538461538,357.7307692307692,4862.673076923077,6291.711538461538
2026-01-10 20:41:42.940,2382.2307692307695,-1889.8076923076924,357.53846153846155,4862.653846153846,6291.576923076923
2026-01-10 20:41:42.960,2420.576923076923,-1888.5192307692307,357.34615384615387,4862.634615384615,6291.442307692308
2026-01-10 20:41:42.980,2458.923076923077,-1887.2307692307693,357.15384615384613,4862.615384615385,6291.307692307692
2026-01-10 20:41:43.000,2497.269230769231,-1885.9423076923076,356.96153846153845,4862.596153846154,6291.173076923077
2026-01-10 20:41:43.020,2535.6153846153848,-1884.6538461538462,356.7692307692308,4862.576923076923,6291.038461538462
2026-01-10 20:41:43.040,2573.9615384615386,-1883.3653846153845,356.5769230769231,4862.557692307692,6290.903846153846
2026-01-10 20:41:43.060,2612.3076923076924,-1882.076923076923,356.38461538461536,4862.538461538462,6290.7692307692305
2026-01-10 20:41:43.080,2650.653846153846,-1880.7884615384614,356.1923076923077,4862.5192307692305,6290.634615384615
2026-01-10 20:41:43.100,2689.0,-1879.5,356.0,4862.5,6290.5
2026-01-10 20:41:43.120,2727.346153846154,-1878.2115384615386,355.8076923076923,4862.4807692307695,6290.365384615385
2026-01-10 20:41:43.140,2765.6923076923076,-1876.923076923077,355.61538461538464,4862.461538461538,6290.2307692307695
2026-01-10 20:41:43.160,2804.038461538462,-1875.6346153846155,355.4230769230769,4862.442307692308,6290.096153846154
2026-01-10 20:41:43.180,2842.3846153846152,-1874.3461538461538,355.2307692307692,4862.423076923077,6289.961538461538
2026-01-10 20:41:43.200,2880.7307692307695,-1873.0576923076924,355.03846153846155,4862.403846153846,6289.826923076923
2026-01-10 20:41:43.220,2919.076923076923,-1871.7692307692307,354.84615384615387,4862.384615384615,6289.692307692308
2026-01-10 20:41:43.240,2957.423076923077,-1870.4807692307693,354.65384615384613,4862.365384615385,6289.557692307692
2026-01-10 20:41:43.260,2995.7692307692305,-1869.1923076923076,354.46153846153845,4862.346153846154,6289.423076923077
2026-01-10 20:41:43.280,3034.1153846153848,-1867.9038461538462,354.2692307692308,4862.326923076923,6289.288461538462
2026-01-10 20:41:43.300,3072.4615384615386,-1866.6153846153845,354.0769230769231,4862.307692307692,6289.153846153846
2026-01-10 20:41:43.320,3110.8076923076924,-1865.326923076923,353.88461538461536,4862.288461538462,6289.0192307692305
2026-01-10 20:41:43.340,3149.153846153846,-1864.0384615384614,353.6923076923077,4862.2692307692305,6288.884615384615
2026-01-10 20:41:43.360,3187.5,-1862.75,353.5,4862.25,6288.75
2026-01-10 20:41:43.380,3225.846153846154,-1861.4615384615386,353.3076923076923,4862.2307692307695,6288.615384615385
2026-01-10 20:41:43.400,3264.1923076923076,-1860.173076923077,353.11538461538464,4862.211538461538,6288.4807692307695
2026-01-10 20:41:43.420,3302.538461538462,-1858.8846153846155,352.9230769230769,4862.192307692308,6288.346153846154
2026-01-10 20:41:43.440,3340.8846153846152,-1857.5961538461538,352.7307692307692,4862.173076923077,6288.211538461538
2026-01-10 20:41:43.460,3379.2307692307695,-1856.3076923076924,352.53846153846155,4862.153846153846,6288.076923076923
2026-01-10 20:41:43.480,3417.576923076923,-1855.0192307692307,352.34615384615387,4862.134615384615,6287.942307692308
2026-01-10 20:41:43.500,3455.923076923077,-1853.7307692307693,352.15384615384613,4862.115384615385,6287.807692307692
2026-01-10 20:41:43.520,3494.2692307692305,-1852.4423076923076,351.96153846153845,4862.096153846154,6287.673076923077
2026-01-10 20:41:43.540,3532.6153846153848,-1851.1538461538462,351.7692307692308,4862.076923076923,6287.538461538462
2026-01-10 20:41:43.560,3570.9615384615386,-1849.8653846153845,351.5769230769231,4862.057692307692,6287.403846153846
2026-01-10 20:41:43.580,3609.3076923076924,-1848.576923076923,351.38461538461536,4862.038461538462,6287.2692307692305
2026-01-10 20:41:43.600,3647.653846153846,-1847.2884615384614,351.1923076923077,4862.0192307692305,6287.134615384615
2026-01-10 20:41:43.620,3686.0,-1846.0,351.0,4862.0,6287.0
2026-01-10 20:41:43.640,3644.7083333333335,-1805.0416666666667,350.5625,4862.041666666667,6287.145833333333
2026-01-10 20:41:43.660,3603.4166666666665,-1764.0833333333333,350.125,4862.083333333333,6287.291666666667
2026-01-10 20:41:43.680,3562.125,-1723.125,349.6875,4862.125,6287.4375
2026-01-10 20:41:43.700,3520.8333333333335,-1682.1666666666667,349.25,4862.166666666667,6287.583333333333
2026-01-10 20:41:43.720,3479.5416666666665,-1641.2083333333333,348.8125,4862.208333333333,6287.729166666667
2026-01-10 20:41:43.740,3438.25,-1600.25,348.375,4862.25,6287.875
2026-01-10 20:41:43.760,3396.9583333333335,-1559.2916666666665,347.9375,4862.291666666667,6288.020833333333
2026-01-10 20:41:43.780,3355.6666666666665,-1518.3333333333333,347.5,4862.333333333333,6288.166666666667
2026-01-10 20:41:43.800,3314.375,-1477.375,347.0625,4862.375,6288.3125
2026-01-10 20:41:43.820,3273.0833333333335,-1436.4166666666665,346.625,4862.416666666667,6288.458333333333
2026-01-10 20:41:43.840,3231.7916666666665,-1395.4583333333333,346.1875,4862.458333333333,6288.604166666667
2026-01-10 20:41:43.860,3190.5,-1354.5,345.75,4862.5,6288.75
2026-01-10 20:41:43.880,3149.2083333333335,-1313.5416666666665,345.3125,4862.541666666667,6288.895833333333
2026-01-10 20:41:43.900,3107.916666666667,-1272.5833333333333,344.875,4862.583333333333,6289.041666666667
2026-01-10 20:41:43.920,3066.625,-1231.625,344.4375,4862.625,6289.1875
2026-01-10 20:41:43.940,3025.3333333333335,-1190.6666666666665,344.0,4862.666666666667,6289.333333333333
2026-01-10 20:41:43.960,2984.041666666667,-1149.7083333333333,343.5625,4862.708333333333,6289.479166666667
2026-01-10 20:41:43.980,2942.75,-1108.75,343.125,4862.75,6289.625
2026-01-10 20:41:44.000,2901.4583333333335,-1067.7916666666665,342.6875,4862.791666666667,6289.770833333333
2026-01-10 20:41:44.020,2860.166666666667,-1026.8333333333333,342.25,4862.833333333333,6289.916666666667
2026-01-10 20:41:44.040,2818.875,-985.875,341.8125,4862.875,6290.0625
2026-01-10 20:41:44.060,2777.5833333333335,-944.9166666666666,341.375,4862.916666666667,6290.208333333333
2026-01-10 20:41:44.080,2736.291666666667,-903.9583333333333,340.9375,4862.958333333333,6290.354166666667
2026-01-10 20:41:44.100,2695.0,-863.0,340.5,4863.0,6290.5
2026-01-10 20:41:44.120,2653.7083333333335,-822.0416666666666,340.0625,4863.041666666667,6290.645833333333
2026-01-10 20:41:44.140,2612.416666666667,-781.0833333333333,339.625,4863.083333333333,6290.791666666667
2026-01-10 20:41:44.160,2571.125,-740.125,339.1875,4863.125,6290.9375
2026-01-10 20:41:44.180,2529.8333333333335,-699.1666666666665,338.75,4863.166666666667,6291.083333333333
2026-01-10 20:41:44.200,2488.541666666667,-658.2083333333333,338.3125,4863.208333333333,6291.229166666667
2026-01-10 20:41:44.220,2447.25,-617.25,337.875,4863.25,6291.375
2026-01-10 20:41:44.240,2405.9583333333335,-576.2916666666665,337.4375,4863.291666666667,6291.520833333333
2026-01-10 20:41:44.260,2364.666666666667,-535.3333333333333,337.0,4863.333333333333,6291.666666666667
2026-01-10 20:41:44.280,2323.375,-494.375,336.5625,4863.375,6291.8125
2026-01-10 20:41:44.300,2282.0833333333335,-453.4166666666665,336.125,4863.416666666667,6291.958333333333
2026-01-10 20:41:44.320,2240.791666666667,-412.45833333333326,335.6875,4863.458333333333,6292.104166666667
2026-01-10 20:41:44.340,2199.5,-371.5,335.25,4863.5,6292.25
2026-01-10 20:41:44.360,2158.2083333333335,-330.5416666666665,334.8125,4863.541666666667,6292.395833333333
2026-01-10 20:41:44.380,2116.916666666667,-289.58333333333326,334.375,4863.583333333333,6292.541666666667
2026-01-10 20:41:44.400,2075.625,-248.625,333.9375,4863.625,6292.6875
2026-01-10 20:41:44.420,2034.3333333333335,-207.66666666666652,333.5,4863.666666666667,6292.833333333333
2026-01-10 20:41:44.440,1993.0416666666667,-166.70833333333326,333.0625,4863.708333333333,6292.979166666667
2026-01-10 20:41:44.460,1951.75,-125.75,332.625,4863.75,6293.125
2026-01-10 20:41:44.480,1910.4583333333335,-84.79166666666652,332.1875,4863.791666666667,6293.270833333333
2026-01-10 20:41:44.500,1869.1666666666667,-43.83333333333326,331.75,4863.833333333333,6293.416666666667
2026-01-10 20:41:44.520,1827.875,-2.875,331.3125,4863.875,6293.5625
2026-01-10 20:41:44.540,1786.5833333333335,38.083333333333485,330.875,4863.916666666667,6293.708333333333
2026-01-10 20:41:44.560,1745.2916666666667,79.04166666666674,330.4375,4863.958333333333,6293.854166666667
2026-01-10 20:41:44.580,1704.0,120.0,330.0,4864.0,6294.0
2026-01-10 20:41:44.600,1740.6851851851852,82.87037037037038,330.01851851851853,4864.055555555556,6293.7962962962965
2026-01-10 20:41:44.620,1777.3703703703704,45.74074074074075,330.037037037037,4864.111111111111,6293.592592592592
2026-01-10 20:41:44.640,1814.0555555555557,8.611111111111114,330.05555555555554,4864.166666666667,6293.388888888889
2026-01-10 20:41:44.660,1850.7407407407406,-28.518518518518505,330.0740740740741,4864.222222222223,6293.185185185185
2026-01-10 20:41:44.680,1887.4259259259259,-65.64814814814812,330.0925925925926,4864.277777777777,6292.981481481482
2026-01-10 20:41:44.700,1924.111111111111,-102.77777777777777,330.1111111111111,4864.333333333333,6292.777777777777
2026-01-10 20:41:44.720,1960.7962962962963,-139.9074074074074,330.1296296296296,4864.388888888889,6292.574074074074
2026-01-10 20:41:44.740,1997.4814814814815,-177.037037037037,330.14814814814815,4864.444444444444,6292.37037037037
2026-01-10 20:41:44.760,2034.1666666666665,-214.16666666666663,330.1666666666667,4864.5,6292.166666666667
2026-01-10 20:41:44.780,2070.8518518518517,-251.29629629629625,330.18518518518516,4864.555555555556,6291.962962962963
2026-01-10 20:41:44.800,2107.537037037037,-288.42592592592587,330.2037037037037,4864.611111111111,6291.759259259259
2026-01-10 20:41:44.820,2144.222222222222,-325.55555555555554,330.22222222222223,4864.666666666667,6291.555555555556
2026-01-10 20:41:44.840,2180.9074074074074,-362.68518518518516,330.24074074074076,4864.722222222223,6291.351851851852
2026-01-10 20:41:44.860,2217.5925925925926,-399.8148148148148,330.25925925925924,4864.777777777777,6291.148148148148
2026-01-10 20:41:44.880,2254.277777777778,-436.94444444444434,330.27777777777777,4864.833333333333,6290.944444444444
2026-01-10 20:41:44.900,2290.962962962963,-474.074074074074,330.2962962962963,4864.888888888889,6290.740740740741
2026-01-10 20:41:44.920,2327.6481481481483,-511.2037037037037,330.31481481481484,4864.944444444444,6290.537037037037
2026-01-10 20:41:44.940,2364.333333333333,-548.3333333333333,330.3333333333333,4865.0,6290.333333333333
2026-01-10 20:41:44.960,2401.0185185185182,-585.4629629629629,330.35185185185185,4865.055555555556,6290.12962962963
2026-01-10 20:41:44.980,2437.7037037037035,-622.5925925925925,330.3703703703704,4865.111111111111,6289.925925925926
2026-01-10 20:41:45.000,2474.3888888888887,-659.7222222222222,330.3888888888889,4865.166666666667,6289.722222222223
2026-01-10 20:41:45.020,2511.074074074074,-696.8518518518517,330.4074074074074,4865.222222222223,6289.518518518518
2026-01-10 20:41:45.040,2547.759259259259,-733.9814814814814,330.4259259259259,4865.277777777777,6289.314814814815
2026-01-10 20:41:45.060,2584.4444444444443,-771.1111111111111,330.44444444444446,4865.333333333333,6289.111111111111
2026-01-10 20:41:45.080,2621.1296296296296,-808.2407407407406,330.462962962963,4865.388888888889,6288.907407407408
2026-01-10 20:41:45.100,2657.814814814815,-845.3703703703703,330.48148148148147,4865.444444444444,6288.7037037037035
2026-01-10 20:41:45.120,2694.5,-882.4999999999999,330.5,4865.5,6288.5
2026-01-10 20:41:45.140,2731.185185185185,-919.6296296296296,330.51851851851853,4865.555555555556,6288.2962962962965
2026-01-10 20:41:45.160,2767.8703703703704,-956.7592592592591,330.537037037037,4865.611111111111,6288.092592592592
2026-01-10 20:41:45.180,2804.5555555555557,-993.8888888888887,330.55555555555554,4865.666666666667,6287.888888888889
2026-01-10 20:41:45.200,2841.240740740741,-1031.0185185185185,330.5740740740741,4865.722222222223,6287.685185185185
2026-01-10 20:41:45.220,2877.925925925926,-1068.148148148148,330.5925925925926,4865.777777777777,6287.481481481482
2026-01-10 20:41:45.240,2914.6111111111113,-1105.2777777777776,330.6111111111111,4865.833333333333,6287.277777777777
2026-01-10 20:41:45.260,2951.2962962962965,-1142.4074074074074,330.6296296296296,4865.888888888889,6287.074074074074
2026-01-10 20:41:45.280,2987.9814814814818,-1179.537037037037,330.64814814814815,4865.944444444444,6286.87037037037
2026-01-10 20:41:45.300,3024.6666666666665,-1216.6666666666665,330.6666666666667,4866.0,6286.666666666667
2026-01-10 20:41:45.320,3061.3518518518517,-1253.796296296296,330.68518518518516,4866.055555555556,6286.462962962963
2026-01-10 20:41:45.340,3098.037037037037,-1290.9259259259259,330.7037037037037,4866.111111111111,6286.259259259259
2026-01-10 20:41:45.360,3134.722222222222,-1328.0555555555554,330.72222222222223,4866.166666666667,6286.055555555556
2026-01-10 20:41:45.380,3171.4074074074074,-1365.185185185185,330.74074074074076,4866.222222222223,6285.851851851852
2026-01-10 20:41:45.400,3208.0925925925926,-1402.3148148148148,330.75925925925924,4866.277777777777,6285.648148148148
2026-01-10 20:41:45.420,3244.7777777777774,-1439.4444444444443,330.77777777777777,4866.333333333333,6285.444444444444
2026-01-10 20:41:45.440,3281.4629629629626,-1476.574074074074,330.7962962962963,4866.388888888889,6285.240740740741
2026-01-10 20:41:45.460,3318.148148148148,-1513.7037037037035,330.81481481481484,4866.444444444444,6285.037037037037
2026-01-10 20:41:45.480,3354.833333333333,-1550.8333333333333,330.8333333333333,4866.5,6284.833333333333
2026-01-10 20:41:45.500,3391.5185185185182,-1587.9629629629628,330.85185185185185,4866.555555555556,6284.62962962963
2026-01-10 20:41:45.520,3428.2037037037035,-1625.0925925925924,330.8703703703704,4866.611111111111,6284.425925925926
2026-01-10 20:41:45.540,3464.8888888888887,-1662.2222222222222,330.8888888888889,4866.666666666667,6284.222222222223
2026-01-10 20:41:45.560,3501.574074074074,-1699.3518518518517,330.9074074074074,4866.722222222223,6284.018518518518
2026-01-10 20:41:45.580,3538.259259259259,-1736.4814814814813,330.9259259259259,4866.777777777777,6283.814814814815
2026-01-10 20:41:45.600,3574.9444444444443,-1773.6111111111109,330.94444444444446,4866.833333333333,6283.611111111111
2026-01-10 20:41:45.620,3611.6296296296296,-1810.7407407407406,330.962962962963,4866.888888888889,6283.407407407408
2026-01-10 20:41:45.640,3648.314814814815,-1847.8703703703702,330.98148148148147,4866.944444444444,6283.2037037037035
2026-01-10 20:41:45.660,3685.0,-1885.0,331.0,4867.0,6283.0
2026-01-10 20:41:45.680,3643.8333333333335,-1884.4166666666667,285.7708333333333,4867.166666666667,6283.020833333333
2026-01-10 20:41:45.700,3602.6666666666665,-1883.8333333333333,240.54166666666669,4867.333333333333,6283.041666666667
2026-01-10 20:41:45.720,3561.5,-1883.25,195.3125,4867.5,6283.0625
2026-01-10 20:41:45.740,3520.3333333333335,-1882.6666666666667,150.08333333333334,4867.666666666667,6283.083333333333
2026-01-10 20:41:45.760,3479.1666666666665,-1882.0833333333333,104.85416666666669,4867.833333333333,6283.104166666667
2026-01-10 20:41:45.780,3438.0,-1881.5,59.625,4868.0,6283.125
2026-01-10 20:41:45.800,3396.8333333333335,-1880.9166666666667,14.395833333333371,4868.166666666667,6283.145833333333
2026-01-10 20:41:45.820,3355.6666666666665,-1880.3333333333333,-30.833333333333314,4868.333333333333,6283.166666666667
2026-01-10 20:41:45.840,3314.5,-1879.75,-76.0625,4868.5,6283.1875
2026-01-10 20:41:45.860,3273.3333333333335,-1879.1666666666667,-121.29166666666663,4868.666666666667,6283.208333333333
2026-01-10 20:41:45.880,3232.1666666666665,-1878.5833333333333,-166.52083333333331,4868.833333333333,6283.229166666667
2026-01-10 20:41:45.900,3191.0,-1878.0,-211.75,4869.0,6283.25
2026-01-10 20:41:45.920,3149.8333333333335,-1877.4166666666667,-256.97916666666663,4869.166666666667,6283.270833333333
2026-01-10 20:41:45.940,3108.666666666667,-1876.8333333333333,-302.20833333333326,4869.333333333333,6283.291666666667
2026-01-10 20:41:45.960,3067.5,-1876.25,-347.4375,4869.5,6283.3125
2026-01-10 20:41:45.980,3026.3333333333335,-1875.6666666666667,-392.66666666666663,4869.666666666667,6283.333333333333
2026-01-10 20:41:46.000,2985.166666666667,-1875.0833333333333,-437.89583333333326,4869.833333333333,6283.354166666667
2026-01-10 20:41:46.020,2944.0,-1874.5,-483.125,4870.0,6283.375
2026-01-10 20:41:46.040,2902.8333333333335,-1873.9166666666667,-528.3541666666666,4870.166666666667,6283.395833333333
2026-01-10 20:41:46.060,2861.666666666667,-1873.3333333333333,-573.5833333333333,4870.333333333333,6283.416666666667
2026-01-10 20:41:46.080,2820.5,-1872.75,-618.8125,4870.5,6283.4375
2026-01-10 20:41:46.100,2779.3333333333335,-1872.1666666666667,-664.0416666666666,4870.666666666667,6283.458333333333
2026-01-10 20:41:46.120,2738.166666666667,-1871.5833333333333,-709.2708333333333,4870.833333333333,6283.479166666667
2026-01-10 20:41:46.140,2697.0,-1871.0,-754.5,4871.0,6283.5
2026-01-10 20:41:46.160,2655.8333333333335,-1870.4166666666667,-799.7291666666665,4871.166666666667,6283.520833333333
2026-01-10 20:41:46.180,2614.666666666667,-1869.8333333333333,-844.9583333333333,4871.333333333333,6283.541666666667
2026-01-10 20:41:46.200,2573.5,-1869.25,-890.1875,4871.5,6283.5625
2026-01-10 20:41:46.220,2532.3333333333335,-1868.6666666666667,-935.4166666666665,4871.666666666667,6283.583333333333
2026-01-10 20:41:46.240,2491.166666666667,-1868.0833333333333,-980.6458333333333,4871.833333333333,6283.604166666667
2026-01-10 20:41:46.260,2450.0,-1867.5,-1025.875,4872.0,6283.625
2026-01-10 20:41:46.280,2408.8333333333335,-1866.9166666666667,-1071.1041666666665,4872.166666666667,6283.645833333333
2026-01-10 20:41:46.300,2367.666666666667,-1866.3333333333333,-1116.3333333333333,4872.333333333333,6283.666666666667
2026-01-10 20:41:46.320,2326.5,-1865.75,-1161.5625,4872.5,6283.6875
2026-01-10 20:41:46.340,2285.3333333333335,-1865.1666666666667,-1206.7916666666665,4872.666666666667,6283.708333333333
2026-01-10 20:41:46.360,2244.166666666667,-1864.5833333333333,-1252.0208333333333,4872.833333333333,6283.729166666667
2026-01-10 20:41:46.380,2203.0,-1864.0,-1297.25,4873.0,6283.75
2026-01-10 20:41:46.400,2161.8333333333335,-1863.4166666666667,-1342.4791666666665,4873.166666666667,6283.770833333333
2026-01-10 20:41:46.420,2120.666666666667,-1862.8333333333333,-1387.7083333333333,4873.333333333333,6283.791666666667
2026-01-10 20:41:46.440,2079.5,-1862.25,-1432.9375,4873.5,6283.8125
2026-01-10 20:41:46.460,2038.3333333333335,-1861.6666666666667,-1478.1666666666665,4873.666666666667,6283.833333333333
2026-01-10 20:41:46.480,1997.1666666666667,-1861.0833333333333,-1523.3958333333333,4873.833333333333,6283.854166666667
2026-01-10 20:41:46.500,1956.0,-1860.5,-1568.625,4874.0,6283.875
2026-01-10 20:41:46.520,1914.8333333333335,-1859.9166666666667,-1613.8541666666665,4874.166666666667,6283.895833333333
2026-01-10 20:41:46.540,1873.6666666666667,-1859.3333333333333,-1659.0833333333333,4874.333333333333,6283.916666666667
2026-01-10 20:41:46.560,1832.5,-1858.75,-1704.3125,4874.5,6283.9375
2026-01-10 20:41:46.580,1791.3333333333335,-1858.1666666666667,-1749.5416666666665,4874.666666666667,6283.958333333333
2026-01-10 20:41:46.600,1750.1666666666667,-1857.5833333333333,-1794.770833333333,4874.833333333333,6283.979166666667
2026-01-10 20:41:46.620,1709.0,-1857.0,-1840.0,4875.0,6284.0
2026-01-10 20:41:46.640,1708.7708333333333,-1857.4583333333333,-1795.1458333333333,4875.208333333333,6284.270833333333
2026-01-10 20:41:46.660,1708.5416666666667,-1857.9166666666667,-1750.2916666666667,4875.416666666667,6284.541666666667
2026-01-10 20:41:46.680,1708.3125,-1858.375,-1705.4375,4875.625,6284.8125
2026-01-10 20:41:46.700,1708.0833333333333,-1858.8333333333333,-1660.5833333333333,4875.833333333333,6285.083333333333
2026-01-10 20:41:46.720,1707.8541666666667,-1859.2916666666667,-1615.7291666666667,4876.041666666667,6285.354166666667
2026-01-10 20:41:46.740,1707.625,-1859.75,-1570.875,4876.25,6285.625
2026-01-10 20:41:46.760,1707.3958333333333,-1860.2083333333333,-1526.0208333333335,4876.458333333333,6285.895833333333
2026-01-10 20:41:46.780,1707.1666666666667,-1860.6666666666667,-1481.1666666666667,4876.666666666667,6286.166666666667
2026-01-10 20:41:46.800,1706.9375,-1861.125,-1436.3125,4876.875,6286.4375
2026-01-10 20:41:46.820,1706.7083333333333,-1861.5833333333333,-1391.4583333333335,4877.083333333333,6286.708333333333
2026-01-10 20:41:46.840,1706.4791666666667,-1862.0416666666667,-1346.6041666666667,4877.291666666667,6286.979166666667
2026-01-10 20:41:46.860,1706.25,-1862.5,-1301.75,4877.5,6287.25
2026-01-10 20:41:46.880,1706.0208333333333,-1862.9583333333333,-1256.8958333333335,4877.708333333333,6287.520833333333
2026-01-10 20:41:46.900,1705.7916666666667,-1863.4166666666667,-1212.0416666666667,4877.916666666667,6287.791666666667
2026-01-10 20:41:46.920,1705.5625,-1863.875,-1167.1875,4878.125,6288.0625
2026-01-10 20:41:46.940,1705.3333333333333,-1864.3333333333333,-1122.3333333333335,4878.333333333333,6288.333333333333
2026-01-10 20:41:46.960,1705.1041666666667,-1864.7916666666667,-1077.4791666666667,4878.541666666667,6288.604166666667
2026-01-10 20:41:46.980,1704.875,-1865.25,-1032.625,4878.75,6288.875
2026-01-10 20:41:47.000,1704.6458333333333,-1865.7083333333333,-987.7708333333334,4878.958333333333,6289.145833333333
2026-01-10 20:41:47.020,1704.4166666666667,-1866.1666666666667,-942.9166666666667,4879.166666666667,6289.416666666667
2026-01-10 20:41:47.040,1704.1875,-1866.625,-898.0625,4879.375,6289.6875
2026-01-10 20:41:47.060,1703.9583333333333,-1867.0833333333333,-853.2083333333334,4879.583333333333,6289.958333333333
2026-01-10 20:41:47.080,1703.7291666666667,-1867.5416666666667,-808.3541666666667,4879.791666666667,6290.229166666667
2026-01-10 20:41:47.100,1703.5,-1868.0,-763.5,4880.0,6290.5
2026-01-10 20:41:47.120,1703.2708333333333,-1868.4583333333333,-718.6458333333335,4880.208333333333,6290.770833333333
2026-01-10 20:41:47.140,1703.0416666666667,-1868.9166666666667,-673.7916666666667,4880.416666666667,6291.041666666667
2026-01-10 20:41:47.160,1702.8125,-1869.375,-628.9375,4880.625,6291.3125
2026-01-10 20:41:47.180,1702.5833333333333,-1869.8333333333333,-584.0833333333335,4880.833333333333,6291.583333333333
2026-01-10 20:41:47.200,1702.3541666666667,-1870.2916666666667,-539.2291666666667,4881.041666666667,6291.854166666667
2026-01-10 20:41:47.220,1702.125,-1870.75,-494.375,4881.25,6292.125
2026-01-10 20:41:47.240,1701.8958333333333,-1871.2083333333333,-449.5208333333335,4881.458333333333,6292.395833333333
2026-01-10 20:41:47.260,1701.6666666666667,-1871.6666666666667,-404.66666666666674,4881.666666666667,6292.666666666667
2026-01-10 20:41:47.280,1701.4375,-1872.125,-359.8125,4881.875,6292.9375
2026-01-10 20:41:47.300,1701.2083333333333,-1872.5833333333333,-314.9583333333335,4882.083333333333,6293.208333333333
2026-01-10 20:41:47.320,1700.9791666666667,-1873.0416666666667,-270.10416666666674,4882.291666666667,6293.479166666667
2026-01-10 20:41:47.340,1700.75,-1873.5,-225.25,4882.5,6293.75
2026-01-10 20:41:47.360,1700.5208333333333,-1873.9583333333333,-180.39583333333348,4882.708333333333,6294.020833333333
2026-01-10 20:41:47.380,1700.2916666666667,-1874.4166666666667,-135.54166666666674,4882.916666666667,6294.291666666667
2026-01-10 20:41:47.400,1700.0625,-1874.875,-90.6875,4883.125,6294.5625
2026-01-10 20:41:47.420,1699.8333333333333,-1875.3333333333333,-45.833333333333485,4883.333333333333,6294.833333333333
2026-01-10 20:41:47.440,1699.6041666666667,-1875.7916666666667,-0.9791666666667425,4883.541666666667,6295.104166666667
2026-01-10 20:41:47.460,1699.375,-1876.25,43.875,4883.75,6295.375
2026-01-10 20:41:47.480,1699.1458333333333,-1876.7083333333333,88.72916666666652,4883.958333333333,6295.645833333333
2026-01-10 20:41:47.500,1698.9166666666667,-1877.1666666666667,133.58333333333326,4884.166666666667,6295.916666666667
2026-01-10 20:41:47.520,1698.6875,-1877.625,178.4375,4884.375,6296.1875
2026-01-10 20:41:47.540,1698.4583333333333,-1878.0833333333333,223.29166666666652,4884.583333333333,6296.458333333333
2026-01-10 20:41:47.560,1698.2291666666667,-1878.5416666666667,268.14583333333303,4884.791666666667,6296.729166666667
2026-01-10 20:41:47.580,1698.0,-1879.0,313.0,4885.0,6297.0
2026-01-10 20:41:47.600,1734.1851851851852,-1879.0740740740741,312.9259259259259,4885.0,6296.87037037037
2026-01-10 20:41:47.620,1770.3703703703704,-1879.148148148148,312.85185185185185,4885.0,6296.740740740741
2026-01-10 20:41:47.640,1806.5555555555557,-1879.2222222222222,312.77777777777777,4885.0,6296.611111111111
2026-01-10 20:41:47.660,1842.7407407407406,-1879.2962962962963,312.7037037037037,4885.0,6296.481481481482
2026-01-10 20:41:47.680,1878.9259259259259,-1879.3703703703704,312.6296296296296,4885.0,6296.351851851852
2026-01-10 20:41:47.700,1915.111111111111,-1879.4444444444443,312.55555555555554,4885.0,6296.222222222223
2026-01-10 20:41:47.720,1951.2962962962963,-1879.5185185185185,312.48148148148147,4885.0,6296.092592592592
2026-01-10 20:41:47.740,1987.4814814814815,-1879.5925925925926,312.4074074074074,4885.0,6295.962962962963
2026-01-10 20:41:47.760,2023.6666666666665,-1879.6666666666667,312.3333333333333,4885.0,6295.833333333333
2026-01-10 20:41:47.780,2059.8518518518517,-1879.7407407407406,312.25925925925924,4885.0,6295.7037037037035
2026-01-10 20:41:47.800,2096.037037037037,-1879.8148148148148,312.18518518518516,4885.0,6295.574074074074
2026-01-10 20:41:47.820,2132.222222222222,-1879.888888888889,312.1111111111111,4885.0,6295.444444444444
2026-01-10 20:41:47.840,2168.4074074074074,-1879.962962962963,312.037037037037,4885.0,6295.314814814815
2026-01-10 20:41:47.860,2204.5925925925926,-1880.037037037037,311.962962962963,4885.0,6295.185185185185
2026-01-10 20:41:47.880,2240.777777777778,-1880.111111111111,311.8888888888889,4885.0,6295.055555555556
2026-01-10 20:41:47.900,2276.962962962963,-1880.1851851851852,311.81481481481484,4885.0,6294.925925925926
2026-01-10 20:41:47.920,2313.1481481481483,-1880.2592592592594,311.74074074074076,4885.0,6294.7962962962965
2026-01-10 20:41:47.940,2349.333333333333,-1880.3333333333333,311.6666666666667,4885.0,6294.666666666667
2026-01-10 20:41:47.960,2385.5185185185182,-1880.4074074074074,311.5925925925926,4885.0,6294.537037037037
2026-01-10 20:41:47.980,2421.7037037037035,-1880.4814814814815,311.51851851851853,4885.0,6294.407407407408
2026-01-10 20:41:48.000,2457.8888888888887,-1880.5555555555557,311.44444444444446,4885.0,6294.277777777777
2026-01-10 20:41:48.020,2494.074074074074,-1880.6296296296296,311.3703703703704,4885.0,6294.148148148148
2026-01-10 20:41:48.040,2530.259259259259,-1880.7037037037037,311.2962962962963,4885.0,6294.018518518518
2026-01-10 20:41:48.060,2566.4444444444443,-1880.7777777777778,311.22222222222223,4885.0,6293.888888888889
2026-01-10 20:41:48.080,2602.6296296296296,-1880.851851851852,311.14814814814815,4885.0,6293.759259259259
2026-01-10 20:41:48.100,2638.814814814815,-1880.9259259259259,311.0740740740741,4885.0,6293.62962962963
2026-01-10 20:41:48.120,2675.0,-1881.0,311.0,4885.0,6293.5
2026-01-10 20:41:48.140,2711.185185185185,-1881.0740740740741,310.9259259259259,4885.0,6293.37037037037
2026-01-10 20:41:48.160,2747.3703703703704,-1881.148148148148,310.85185185185185,4885.0,6293.240740740741
2026-01-10 20:41:48.180,2783.5555555555557,-1881.2222222222222,310.77777777777777,4885.0,6293.111111111111
2026-01-10 20:41:48.200,2819.740740740741,-1881.2962962962963,310.7037037037037,4885.0,6292.981481481482
2026-01-10 20:41:48.220,2855.925925925926,-1881.3703703703704,310.6296296296296,4885.0,6292.851851851852
2026-01-10 20:41:48.240,2892.1111111111113,-1881.4444444444443,310.55555555555554,4885.0,6292.722222222223
2026-01-10 20:41:48.260,2928.2962962962965,-1881.5185185185185,310.48148148148147,4885.0,6292.592592592592
2026-01-10 20:41:48.280,2964.4814814814818,-1881.5925925925926,310.4074074074074,4885.0,6292.462962962963
2026-01-10 20:41:48.300,3000.6666666666665,-1881.6666666666667,310.3333333333333,4885.0,6292.333333333333
2026-01-10 20:41:48.320,3036.8518518518517,-1881.7407407407406,310.25925925925924,4885.0,6292.2037037037035
2026-01-10 20:41:48.340,3073.037037037037,-1881.8148148148148,310.18518518518516,4885.0,6292.074074074074
2026-01-10 20:41:48.360,3109.222222222222,-1881.888888888889,310.1111111111111,4885.0,6291.944444444444
2026-01-10 20:41:48.380,3145.4074074074074,-1881.962962962963,310.037037037037,4885.0,6291.814814814815
2026-01-10 20:41:48.400,3181.5925925925926,-1882.037037037037,309.962962962963,4885.0,6291.685185185185
2026-01-10 20:41:48.420,3217.7777777777774,-1882.111111111111,309.8888888888889,4885.0,6291.555555555556
2026-01-10 20:41:48.440,3253.9629629629626,-1882.1851851851852,309.81481481481484,4885.0,6291.425925925926
2026-01-10 20:41:48.460,3290.148148148148,-1882.2592592592594,309.74074074074076,4885.0,6291.2962962962965
2026-01-10 20:41:48.480,3326.333333333333,-1882.3333333333333,309.6666666666667,4885.0,6291.166666666667
2026-01-10 20:41:48.500,3362.5185185185182,-1882.4074074074074,309.5925925925926,4885.0,6291.037037037037
2026-01-10 20:41:48.520,3398.7037037037035,-1882.4814814814815,309.51851851851853,4885.0,6290.907407407408
2026-01-10 20:41:48.540,3434.8888888888887,-1882.5555555555557,309.44444444444446,4885.0,6290.777777777777
2026-01-10 20:41:48.560,3471.074074074074,-1882.6296296296296,309.3703703703704,4885.0,6290.648148148148
2026-01-10 20:41:48.580,3507.259259259259,-1882.7037037037037,309.2962962962963,4885.0,6290.518518518518
2026-01-10 20:41:48.600,3543.4444444444443,-1882.7777777777778,309.22222222222223,4885.0,6290.388888888889
2026-01-10 20:41:48.620,3579.6296296296296,-1882.851851851852,309.14814814814815,4885.0,6290.259259259259
2026-01-10 20:41:48.640,3615.814814814815,-1882.9259259259259,309.0740740740741,4885.0,6290.12962962963
2026-01-10 20:41:48.660,3652.0,-1883.0,309.0,4885.0,6290.0
2026-01-10 20:41:48.680,3607.0,-1878.375,303.4375,4885.020833333333,6289.8125
2026-01-10 20:41:48.700,3562.0,-1873.75,297.875,4885.041666666667,6289.625
2026-01-10 20:41:48.720,3517.0,-1869.125,292.3125,4885.0625,6289.4375
2026-01-10 20:41:48.740,3472.0,-1864.5,286.75,4885.083333333333,6289.25
2026-01-10 20:41:48.760,3427.0,-1859.875,281.1875,4885.104166666667,6289.0625
2026-01-10 20:41:48.780,3382.0,-1855.25,275.625,4885.125,6288.875
2026-01-10 20:41:48.800,3337.0,-1850.625,270.0625,4885.145833333333,6288.6875
2026-01-10 20:41:48.820,3292.0,-1846.0,264.5,4885.166666666667,6288.5
2026-01-10 20:41:48.840,3247.0,-1841.375,258.9375,4885.1875,6288.3125
2026-01-10 20:41:48.860,3202.0,-1836.75,253.375,4885.208333333333,6288.125
2026-01-10 20:41:48.880,3157.0,-1832.125,247.8125,4885.229166666667,6287.9375
2026-01-10 20:41:48.900,3112.0,-1827.5,242.25,4885.25,6287.75
2026-01-10 20:41:48.920,3067.0,-1822.875,236.6875,4885.270833333333,6287.5625
2026-01-10 20:41:48.940,3022.0,-1818.25,231.125,4885.291666666667,6287.375
2026-01-10 20:41:48.960,2977.0,-1813.625,225.5625,4885.3125,6287.1875
2026-01-10 20:41:48.980,2932.0,-1809.0,220.0,4885.333333333333,6287.0
2026-01-10 20:41:49.000,2887.0,-1804.375,214.4375,4885.354166666667,6286.8125
2026-01-10 20:41:49.020,2842.0,-1799.75,208.875,4885.375,6286.625
2026-01-10 20:41:49.040,2797.0,-1795.125,203.3125,4885.395833333333,6286.4375
2026-01-10 20:41:49.060,2752.0,-1790.5,197.75,4885.416666666667,6286.25
2026-01-10 20:41:49.080,2707.0,-1785.875,192.1875,4885.4375,6286.0625
2026-01-10 20:41:49.100,2662.0,-1781.25,186.625,4885.458333333333,6285.875
2026-01-10 20:41:49.120,2617.0,-1776.625,181.0625,4885.479166666667,6285.6875
2026-01-10 20:41:49.140,2572.0,-1772.0,175.5,4885.5,6285.5
2026-01-10 20:41:49.160,2527.0,-1767.375,169.9375,4885.520833333333,6285.3125
2026-01-10 20:41:49.180,2482.0,-1762.75,164.375,4885.541666666667,6285.125
2026-01-10 20:41:49.200,2437.0,-1758.125,158.8125,4885.5625,6284.9375
2026-01-10 20:41:49.220,2392.0,-1753.5,153.25,4885.583333333333,6284.75
2026-01-10 20:41:49.240,2347.0,-1748.875,147.6875,4885.604166666667,6284.5625
2026-01-10 20:41:49.260,2302.0,-1744.25,142.125,4885.625,6284.375
2026-01-10 20:41:49.280,2257.0,-1739.625,136.5625,4885.645833333333,6284.1875
2026-01-10 20:41:49.300,2212.0,-1735.0,131.0,4885.666666666667,6284.0
2026-01-10 20:41:49.320,2167.0,-1730.375,125.4375,4885.6875,6283.8125
2026-01-10 20:41:49.340,2122.0,-1725.75,119.875,4885.708333333333,6283.625
2026-01-10 20:41:49.360,2077.0,-1721.125,114.3125,4885.729166666667,6283.4375
2026-01-10 20:41:49.380,2032.0,-1716.5,108.75,4885.75,6283.25
2026-01-10 20:41:49.400,1987.0,-1711.875,103.1875,4885.770833333333,6283.0625
2026-01-10 20:41:49.420,1942.0,-1707.25,97.625,4885.791666666667,6282.875
2026-01-10 20:41:49.440,1897.0,-1702.625,92.0625,4885.8125,6282.6875
2026-01-10 20:41:49.460,1852.0,-1698.0,86.5,4885.833333333333,6282.5
2026-01-10 20:41:49.480,1807.0,-1693.375,80.9375,4885.854166666667,6282.3125
2026-01-10 20:41:49.500,1762.0,-1688.75,75.375,4885.875,6282.125
2026-01-10 20:41:49.520,1717.0,-1684.125,69.8125,4885.895833333333,6281.9375
2026-01-10 20:41:49.540,1672.0,-1679.5,64.25,4885.916666666667,6281.75
2026-01-10 20:41:49.560,1627.0,-1674.875,58.6875,4885.9375,6281.5625
2026-01-10 20:41:49.580,1582.0,-1670.25,53.125,4885.958333333333,6281.375
2026-01-10 20:41:49.600,1537.0,-1665.625,47.5625,4885.979166666667,6281.1875
2026-01-10 20:41:49.620,1492.0,-1661.0,42.0,4886.0,6281.0
2026-01-10 20:41:49.640,1495.6875,-1623.75,3.3958333333333357,4885.458333333333,6281.3125
2026-01-10 20:41:49.660,1499.375,-1586.5,-35.20833333333333,4884.916666666667,6281.625
2026-01-10 20:41:49.680,1503.0625,-1549.25,-73.8125,4884.375,6281.9375
2026-01-10 20:41:49.700,1506.75,-1512.0,-112.41666666666666,4883.833333333333,6282.25
2026-01-10 20:41:49.720,1510.4375,-1474.75,-151.02083333333331,4883.291666666667,6282.5625
2026-01-10 20:41:49.740,1514.125,-1437.5,-189.625,4882.75,6282.875
2026-01-10 20:41:49.760,1517.8125,-1400.25,-228.22916666666663,4882.208333333333,6283.1875
2026-01-10 20:41:49.780,1521.5,-1363.0,-266.8333333333333,4881.666666666667,6283.5
2026-01-10 20:41:49.800,1525.1875,-1325.75,-305.4375,4881.125,6283.8125
2026-01-10 20:41:49.820,1528.875,-1288.5,-344.04166666666663,4880.583333333333,6284.125
2026-01-10 20:41:49.840,1532.5625,-1251.25,-382.6458333333333,4880.041666666667,6284.4375
2026-01-10 20:41:49.860,1536.25,-1214.0,-421.25,4879.5,6284.75
2026-01-10 20:41:49.880,1539.9375,-1176.75,-459.85416666666663,4878.958333333333,6285.0625
2026-01-10 20:41:49.900,1543.625,-1139.5,-498.45833333333326,4878.416666666667,6285.375
2026-01-10 20:41:49.920,1547.3125,-1102.25,-537.0625,4877.875,6285.6875
2026-01-10 20:41:49.940,1551.0,-1065.0,-575.6666666666666,4877.333333333333,6286.0
2026-01-10 20:41:49.960,1554.6875,-1027.75,-614.2708333333333,4876.791666666667,6286.3125
2026-01-10 20:41:49.980,1558.375,-990.5,-652.875,4876.25,6286.625
2026-01-10 20:41:50.000,1562.0625,-953.25,-691.4791666666666,4875.708333333333,6286.9375
2026-01-10 20:41:50.020,1565.75,-916.0,-730.0833333333333,4875.166666666667,6287.25
2026-01-10 20:41:50.040,1569.4375,-878.75,-768.6875,4874.625,6287.5625
2026-01-10 20:41:50.060,1573.125,-841.5,-807.2916666666666,4874.083333333333,6287.875
2026-01-10 20:41:50.080,1576.8125,-804.25,-845.8958333333333,4873.541666666667,6288.1875
2026-01-10 20:41:50.100,1580.5,-767.0,-884.5,4873.0,6288.5
2026-01-10 20:41:50.120,1584.1875,-729.75,-923.1041666666666,4872.458333333333,6288.8125
2026-01-10 20:41:50.140,1587.875,-692.5,-961.7083333333333,4871.916666666667,6289.125
2026-01-10 20:41:50.160,1591.5625,-655.25,-1000.3125,4871.375,6289.4375
2026-01-10 20:41:50.180,1595.25,-618.0,-1038.9166666666665,4870.833333333333,6289.75
2026-01-10 20:41:50.200,1598.9375,-580.75,-1077.5208333333333,4870.291666666667,6290.0625
2026-01-10 20:41:50.220,1602.625,-543.5,-1116.125,4869.75,6290.375
2026-01-10 20:41:50.240,1606.3125,-506.25,-1154.7291666666665,4869.208333333333,6290.6875
2026-01-10 20:41:50.260,1610.0,-469.0,-1193.3333333333333,4868.666666666667,6291.0
2026-01-10 20:41:50.280,1613.6875,-431.75,-1231.9375,4868.125,6291.3125
2026-01-10 20:41:50.300,1617.375,-394.5,-1270.5416666666665,4867.583333333333,6291.625
2026-01-10 20:41:50.320,1621.0625,-357.25,-1309.1458333333333,4867.041666666667,6291.9375
2026-01-10 20:41:50.340,1624.75,-320.0,-1347.75,4866.5,6292.25
2026-01-10 20:41:50.360,1628.4375,-282.75,-1386.3541666666665,4865.958333333333,6292.5625
2026-01-10 20:41:50.380,1632.125,-245.5,-1424.9583333333333,4865.416666666667,6292.875
2026-01-10 20:41:50.400,1635.8125,-208.25,-1463.5625,4864.875,6293.1875
2026-01-10 20:41:50.420,1639.5,-171.0,-1502.1666666666665,4864.333333333333,6293.5
2026-01-10 20:41:50.440,1643.1875,-133.75,-1540.7708333333333,4863.791666666667,6293.8125
2026-01-10 20:41:50.460,1646.875,-96.5,-1579.375,4863.25,6294.125
2026-01-10 20:41:50.480,1650.5625,-59.25,-1617.9791666666665,4862.708333333333,6294.4375
2026-01-10 20:41:50.500,1654.25,-22.0,-1656.5833333333333,4862.166666666667,6294.75
2026-01-10 20:41:50.520,1657.9375,15.25,-1695.1875,4861.625,6295.0625
2026-01-10 20:41:50.540,1661.625,52.5,-1733.7916666666665,4861.083333333333,6295.375
2026-01-10 20:41:50.560,1665.3125,89.75,-1772.3958333333333,4860.541666666667,6295.6875
2026-01-10 20:41:50.580,1669.0,127.0,-1811.0,4860.0,6296.0
2026-01-10 20:41:50.600,1706.4814814814815,90.12962962962962,-1772.111111111111,4860.111111111111,6296.111111111111
2026-01-10 20:41:50.620,1743.962962962963,53.25925925925925,-1733.2222222222222,4860.222222222223,6296.222222222223
2026-01-10 20:41:50.640,1781.4444444444443,16.388888888888886,-1694.3333333333333,4860.333333333333,6296.333333333333
2026-01-10 20:41:50.660,1818.9259259259259,-20.481481481481495,-1655.4444444444443,4860.444444444444,6296.444444444444
2026-01-10 20:41:50.680,1856.4074074074074,-57.351851851851876,-1616.5555555555557,4860.555555555556,6296.555555555556
2026-01-10 20:41:50.700,1893.888888888889,-94.22222222222223,-1577.6666666666667,4860.666666666667,6296.666666666667
2026-01-10 20:41:50.720,1931.3703703703704,-131.0925925925926,-1538.7777777777778,4860.777777777777,6296.777777777777
2026-01-10 20:41:50.740,1968.8518518518517,-167.962962962963,-1499.888888888889,4860.888888888889,6296.888888888889
2026-01-10 20:41:50.760,2006.3333333333333,-204.83333333333337,-1461.0,4861.0,6297.0
2026-01-10 20:41:50.780,2043.8148148148148,-241.70370370370375,-1422.111111111111,4861.111111111111,6297.111111111111
2026-01-10 20:41:50.800,2081.2962962962965,-278.57407407407413,-1383.2222222222222,4861.222222222223,6297.222222222223
2026-01-10 20:41:50.820,2118.777777777778,-315.44444444444446,-1344.3333333333335,4861.333333333333,6297.333333333333
2026-01-10 20:41:50.840,2156.259259259259,-352.31481481481484,-1305.4444444444443,4861.444444444444,6297.444444444444
2026-01-10 20:41:50.860,2193.740740740741,-389.1851851851852,-1266.5555555555557,4861.555555555556,6297.555555555556
2026-01-10 20:41:50.880,2231.222222222222,-426.05555555555566,-1227.6666666666667,4861.666666666667,6297.666666666667
2026-01-10 20:41:50.900,2268.7037037037035,-462.925925925926,-1188.7777777777778,4861.777777777777,6297.777777777777
2026-01-10 20:41:50.920,2306.185185185185,-499.7962962962963,-1149.888888888889,4861.888888888889,6297.888888888889
2026-01-10 20:41:50.940,2343.6666666666665,-536.6666666666667,-1111.0,4862.0,6298.0
2026-01-10 20:41:50.960,2381.1481481481483,-573.5370370370371,-1072.1111111111113,4862.111111111111,6298.111111111111
2026-01-10 20:41:50.980,2418.6296296296296,-610.4074074074075,-1033.2222222222222,4862.222222222223,6298.222222222223
2026-01-10 20:41:51.000,2456.1111111111113,-647.2777777777778,-994.3333333333334,4862.333333333333,6298.333333333333
2026-01-10 20:41:51.020,2493.5925925925926,-684.1481481481483,-955.4444444444446,4862.444444444444,6298.444444444444
2026-01-10 20:41:51.040,2531.074074074074,-721.0185185185186,-916.5555555555557,4862.555555555556,6298.555555555556
2026-01-10 20:41:51.060,2568.5555555555557,-757.8888888888889,-877.6666666666667,4862.666666666667,6298.666666666667
2026-01-10 20:41:51.080,2606.037037037037,-794.7592592592594,-838.7777777777778,4862.777777777777,6298.777777777777
2026-01-10 20:41:51.100,2643.5185185185182,-831.6296296296297,-799.8888888888889,4862.888888888889,6298.888888888889
2026-01-10 20:41:51.120,2681.0,-868.5000000000001,-761.0,4863.0,6299.0
2026-01-10 20:41:51.140,2718.4814814814818,-905.3703703703704,-722.1111111111113,4863.111111111111,6299.111111111111
2026-01-10 20:41:51.160,2755.962962962963,-942.2407407407409,-683.2222222222224,4863.222222222223,6299.222222222223
2026-01-10 20:41:51.180,2793.4444444444443,-979.1111111111113,-644.3333333333335,4863.333333333333,6299.333333333333
2026-01-10 20:41:51.200,2830.925925925926,-1015.9814814814815,-605.4444444444446,4863.444444444444,6299.444444444444
2026-01-10 20:41:51.220,2868.4074074074074,-1052.851851851852,-566.5555555555557,4863.555555555556,6299.555555555556
2026-01-10 20:41:51.240,2905.8888888888887,-1089.7222222222224,-527.6666666666667,4863.666666666667,6299.666666666667
2026-01-10 20:41:51.260,2943.3703703703704,-1126.5925925925926,-488.7777777777778,4863.777777777777,6299.777777777777
2026-01-10 20:41:51.280,2980.8518518518517,-1163.462962962963,-449.8888888888889,4863.888888888889,6299.888888888889
2026-01-10 20:41:51.300,3018.333333333333,-1200.3333333333335,-411.0,4864.0,6300.0
2026-01-10 20:41:51.320,3055.814814814815,-1237.203703703704,-372.1111111111113,4864.111111111111,6300.111111111111
2026-01-10 20:41:51.340,3093.2962962962965,-1274.0740740740741,-333.2222222222224,4864.222222222223,6300.222222222223
2026-01-10 20:41:51.360,3130.777777777778,-1310.9444444444446,-294.3333333333335,4864.333333333333,6300.333333333333
2026-01-10 20:41:51.380,3168.259259259259,-1347.814814814815,-255.44444444444457,4864.444444444444,6300.444444444444
2026-01-10 20:41:51.400,3205.740740740741,-1384.6851851851852,-216.55555555555566,4864.555555555556,6300.555555555556
2026-01-10 20:41:51.420,3243.222222222222,-1421.5555555555557,-177.66666666666674,4864.666666666667,6300.666666666667
2026-01-10 20:41:51.440,3280.7037037037035,-1458.425925925926,-138.77777777777783,4864.777777777777,6300.777777777777
2026-01-10 20:41:51.460,3318.185185185185,-1495.2962962962965,-99.88888888888914,4864.888888888889,6300.888888888889
2026-01-10 20:41:51.480,3355.666666666667,-1532.1666666666667,-61.00000000000023,4865.0,6301.0
2026-01-10 20:41:51.500,3393.148148148148,-1569.0370370370372,-22.111111111111313,4865.111111111111,6301.111111111111
2026-01-10 20:41:51.520,3430.6296296296296,-1605.9074074074076,16.7777777777776,4865.222222222223,6301.222222222223
2026-01-10 20:41:51.540,3468.1111111111113,-1642.7777777777778,55.666666666666515,4865.333333333333,6301.333333333333
2026-01-10 20:41:51.560,3505.5925925925926,-1679.6481481481483,94.55555555555543,4865.444444444444,6301.444444444444
2026-01-10 20:41:51.580,3543.074074074074,-1716.5185185185187,133.44444444444434,4865.555555555556,6301.555555555556
2026-01-10 20:41:51.600,3580.5555555555557,-1753.3888888888891,172.33333333333326,4865.666666666667,6301.666666666667
2026-01-10 20:41:51.620,3618.037037037037,-1790.2592592592594,211.22222222222217,4865.777777777777,6301.777777777777
2026-01-10 20:41:51.640,3655.5185185185182,-1827.1296296296298,250.11111111111086,4865.888888888889,6301.888888888889
2026-01-10 20:41:51.660,3693.0,-1864.0,289.0,4866.0,6302.0
2026-01-10 20:41:51.680,3651.5833333333335,-1822.5208333333333,289.8541666666667,4866.1875,6302.0625
2026-01-10 20:41:51.700,3610.1666666666665,-1781.0416666666667,290.7083333333333,4866.375,6302.125
2026-01-10 20:41:51.720,3568.75,-1739.5625,291.5625,4866.5625,6302.1875
2026-01-10 20:41:51.740,3527.3333333333335,-1698.0833333333333,292.4166666666667,4866.75,6302.25
2026-01-10 20:41:51.760,3485.9166666666665,-1656.6041666666667,293.2708333333333,4866.9375,6302.3125
2026-01-10 20:41:51.780,3444.5,-1615.125,294.125,4867.125,6302.375
2026-01-10 20:41:51.800,3403.0833333333335,-1573.6458333333335,294.9791666666667,4867.3125,6302.4375
2026-01-10 20:41:51.820,3361.6666666666665,-1532.1666666666667,295.8333333333333,4867.5,6302.5
2026-01-10 20:41:51.840,3320.25,-1490.6875,296.6875,4867.6875,6302.5625
2026-01-10 20:41:51.860,3278.8333333333335,-1449.2083333333335,297.5416666666667,4867.875,6302.625
2026-01-10 20:41:51.880,3237.4166666666665,-1407.7291666666667,298.3958333333333,4868.0625,6302.6875
2026-01-10 20:41:51.900,3196.0,-1366.25,299.25,4868.25,6302.75
2026-01-10 20:41:51.920,3154.5833333333335,-1324.7708333333335,300.1041666666667,4868.4375,6302.8125
2026-01-10 20:41:51.940,3113.166666666667,-1283.2916666666667,300.9583333333333,4868.625,6302.875
2026-01-10 20:41:51.960,3071.75,-1241.8125,301.8125,4868.8125,6302.9375
2026-01-10 20:41:51.980,3030.3333333333335,-1200.3333333333335,302.6666666666667,4869.0,6303.0
2026-01-10 20:41:52.000,2988.916666666667,-1158.8541666666667,303.5208333333333,4869.1875,6303.0625
2026-01-10 20:41:52.020,2947.5,-1117.375,304.375,4869.375,6303.125
2026-01-10 20:41:52.040,2906.0833333333335,-1075.8958333333335,305.2291666666667,4869.5625,6303.1875
2026-01-10 20:41:52.060,2864.666666666667,-1034.4166666666667,306.0833333333333,4869.75,6303.25
2026-01-10 20:41:52.080,2823.25,-992.9375,306.9375,4869.9375,6303.3125
2026-01-10 20:41:52.100,2781.8333333333335,-951.4583333333334,307.7916666666667,4870.125,6303.375
2026-01-10 20:41:52.120,2740.416666666667,-909.9791666666667,308.6458333333333,4870.3125,6303.4375
2026-01-10 20:41:52.140,2699.0,-868.5,309.5,4870.5,6303.5
2026-01-10 20:41:52.160,2657.5833333333335,-827.0208333333335,310.3541666666667,4870.6875,6303.5625
2026-01-10 20:41:52.180,2616.166666666667,-785.5416666666667,311.2083333333333,4870.875,6303.625
2026-01-10 20:41:52.200,2574.75,-744.0625,312.0625,4871.0625,6303.6875
2026-01-10 20:41:52.220,2533.3333333333335,-702.5833333333335,312.9166666666667,4871.25,6303.75
2026-01-10 20:41:52.240,2491.916666666667,-661.1041666666667,313.7708333333333,4871.4375,6303.8125
2026-01-10 20:41:52.260,2450.5,-619.625,314.625,4871.625,6303.875
2026-01-10 20:41:52.280,2409.0833333333335,-578.1458333333335,315.4791666666667,4871.8125,6303.9375
2026-01-10 20:41:52.300,2367.666666666667,-536.6666666666667,316.3333333333333,4872.0,6304.0
2026-01-10 20:41:52.320,2326.25,-495.1875,317.1875,4872.1875,6304.0625
2026-01-10 20:41:52.340,2284.8333333333335,-453.7083333333335,318.0416666666667,4872.375,6304.125
2026-01-10 20:41:52.360,2243.416666666667,-412.22916666666674,318.8958333333333,4872.5625,6304.1875
2026-01-10 20:41:52.380,2202.0,-370.75,319.75,4872.75,6304.25
2026-01-10 20:41:52.400,2160.5833333333335,-329.2708333333335,320.6041666666667,4872.9375,6304.3125
2026-01-10 20:41:52.420,2119.166666666667,-287.79166666666674,321.4583333333333,4873.125,6304.375
2026-01-10 20:41:52.440,2077.75,-246.3125,322.3125,4873.3125,6304.4375
2026-01-10 20:41:52.460,2036.3333333333335,-204.83333333333348,323.1666666666667,4873.5,6304.5
2026-01-10 20:41:52.480,1994.9166666666667,-163.35416666666674,324.0208333333333,4873.6875,6304.5625
2026-01-10 20:41:52.500,1953.5,-121.875,324.875,4873.875,6304.625
2026-01-10 20:41:52.520,1912.0833333333335,-80.39583333333348,325.7291666666667,4874.0625,6304.6875
2026-01-10 20:41:52.540,1870.6666666666667,-38.91666666666674,326.5833333333333,4874.25,6304.75
2026-01-10 20:41:52.560,1829.25,2.5625,327.4375,4874.4375,6304.8125
2026-01-10 20:41:52.580,1787.8333333333335,44.041666666666515,328.2916666666667,4874.625,6304.875
2026-01-10 20:41:52.600,1746.4166666666667,85.52083333333326,329.1458333333333,4874.8125,6304.9375
2026-01-10 20:41:52.620,1705.0,127.0,330.0,4875.0,6305.0
2026-01-10 20:41:52.640,1704.1666666666667,84.70833333333334,330.3958333333333,4875.041666666667,6304.6875
2026-01-10 20:41:52.660,1703.3333333333333,42.41666666666667,330.7916666666667,4875.083333333333,6304.375
2026-01-10 20:41:52.680,1702.5,0.125,331.1875,4875.125,6304.0625
2026-01-10 20:41:52.700,1701.6666666666667,-42.16666666666666,331.5833333333333,4875.166666666667,6303.75
2026-01-10 20:41:52.720,1700.8333333333333,-84.45833333333331,331.9791666666667,4875.208333333333,6303.4375
2026-01-10 20:41:52.740,1700.0,-126.75,332.375,4875.25,6303.125
2026-01-10 20:41:52.760,1699.1666666666667,-169.04166666666663,332.7708333333333,4875.291666666667,6302.8125
2026-01-10 20:41:52.780,1698.3333333333333,-211.33333333333331,333.1666666666667,4875.333333333333,6302.5
2026-01-10 20:41:52.800,1697.5,-253.625,333.5625,4875.375,6302.1875
2026-01-10 20:41:52.820,1696.6666666666667,-295.91666666666663,333.9583333333333,4875.416666666667,6301.875
2026-01-10 20:41:52.840,1695.8333333333333,-338.2083333333333,334.3541666666667,4875.458333333333,6301.5625
2026-01-10 20:41:52.860,1695.0,-380.5,334.75,4875.5,6301.25
2026-01-10 20:41:52.880,1694.1666666666667,-422.79166666666663,335.1458333333333,4875.541666666667,6300.9375
2026-01-10 20:41:52.900,1693.3333333333333,-465.08333333333326,335.5416666666667,4875.583333333333,6300.625
2026-01-10 20:41:52.920,1692.5,-507.375,335.9375,4875.625,6300.3125
2026-01-10 20:41:52.940,1691.6666666666667,-549.6666666666666,336.3333333333333,4875.666666666667,6300.0
2026-01-10 20:41:52.960,1690.8333333333333,-591.9583333333333,336.7291666666667,4875.708333333333,6299.6875
2026-01-10 20:41:52.980,1690.0,-634.25,337.125,4875.75,6299.375
2026-01-10 20:41:53.000,1689.1666666666667,-676.5416666666666,337.5208333333333,4875.791666666667,6299.0625
2026-01-10 20:41:53.020,1688.3333333333333,-718.8333333333333,337.9166666666667,4875.833333333333,6298.75
2026-01-10 20:41:53.040,1687.5,-761.125,338.3125,4875.875,6298.4375
2026-01-10 20:41:53.060,1686.6666666666667,-803.4166666666666,338.7083333333333,4875.916666666667,6298.125
2026-01-10 20:41:53.080,1685.8333333333333,-845.7083333333333,339.1041666666667,4875.958333333333,6297.8125
2026-01-10 20:41:53.100,1685.0,-888.0,339.5,4876.0,6297.5
2026-01-10 20:41:53.120,1684.1666666666667,-930.2916666666665,339.8958333333333,4876.041666666667,6297.1875
2026-01-10 20:41:53.140,1683.3333333333333,-972.5833333333333,340.2916666666667,4876.083333333333,6296.875
2026-01-10 20:41:53.160,1682.5,-1014.875,340.6875,4876.125,6296.5625
2026-01-10 20:41:53.180,1681.6666666666667,-1057.1666666666665,341.0833333333333,4876.166666666667,6296.25
2026-01-10 20:41:53.200,1680.8333333333333,-1099.4583333333333,341.4791666666667,4876.208333333333,6295.9375
2026-01-10 20:41:53.220,1680.0,-1141.75,341.875,4876.25,6295.625
2026-01-10 20:41:53.240,1679.1666666666667,-1184.0416666666665,342.2708333333333,4876.291666666667,6295.3125
2026-01-10 20:41:53.260,1678.3333333333333,-1226.3333333333333,342.6666666666667,4876.333333333333,6295.0
2026-01-10 20:41:53.280,1677.5,-1268.625,343.0625,4876.375,6294.6875
2026-01-10 20:41:53.300,1676.6666666666667,-1310.9166666666665,343.4583333333333,4876.416666666667,6294.375
2026-01-10 20:41:53.320,1675.8333333333333,-1353.2083333333333,343.8541666666667,4876.458333333333,6294.0625
2026-01-10 20:41:53.340,1675.0,-1395.5,344.25,4876.5,6293.75
2026-01-10 20:41:53.360,1674.1666666666667,-1437.7916666666665,344.6458333333333,4876.541666666667,6293.4375
2026-01-10 20:41:53.380,1673.3333333333333,-1480.0833333333333,345.0416666666667,4876.583333333333,6293.125
2026-01-10 20:41:53.400,1672.5,-1522.375,345.4375,4876.625,6292.8125
2026-01-10 20:41:53.420,1671.6666666666667,-1564.6666666666665,345.8333333333333,4876.666666666667,6292.5
2026-01-10 20:41:53.440,1670.8333333333333,-1606.9583333333333,346.2291666666667,4876.708333333333,6292.1875
2026-01-10 20:41:53.460,1670.0,-1649.25,346.625,4876.75,6291.875
2026-01-10 20:41:53.480,1669.1666666666667,-1691.5416666666665,347.0208333333333,4876.791666666667,6291.5625
2026-01-10 20:41:53.500,1668.3333333333333,-1733.8333333333333,347.4166666666667,4876.833333333333,6291.25
2026-01-10 20:41:53.520,1667.5,-1776.125,347.8125,4876.875,6290.9375
2026-01-10 20:41:53.540,1666.6666666666667,-1818.4166666666665,348.2083333333333,4876.916666666667,6290.625
2026-01-10 20:41:53.560,1665.8333333333333,-1860.7083333333333,348.6041666666667,4876.958333333333,6290.3125
2026-01-10 20:41:53.580,1665.0,-1903.0,349.0,4877.0,6290.0
2026-01-10 20:41:53.600,1702.388888888889,-1903.148148148148,348.5740740740741,4877.12962962963,6290.333333333333
2026-01-10 20:41:53.620,1739.7777777777778,-1903.2962962962963,348.14814814814815,4877.259259259259,6290.666666666667
2026-01-10 20:41:53.640,1777.1666666666667,-1903.4444444444443,347.72222222222223,4877.388888888889,6291.0
2026-01-10 20:41:53.660,1814.5555555555557,-1903.5925925925926,347.2962962962963,4877.518518518518,6291.333333333333
2026-01-10 20:41:53.680,1851.9444444444443,-1903.7407407407406,346.8703703703704,4877.648148148148,6291.666666666667
2026-01-10 20:41:53.700,1889.3333333333333,-1903.888888888889,346.44444444444446,4877.777777777777,6292.0
2026-01-10 20:41:53.720,1926.7222222222222,-1904.037037037037,346.01851851851853,4877.907407407408,6292.333333333333
2026-01-10 20:41:53.740,1964.111111111111,-1904.1851851851852,345.5925925925926,4878.037037037037,6292.666666666667
2026-01-10 20:41:53.760,2001.5,-1904.3333333333333,345.1666666666667,4878.166666666667,6293.0
2026-01-10 20:41:53.780,2038.888888888889,-1904.4814814814815,344.74074074074076,4878.2962962962965,6293.333333333333
2026-01-10 20:41:53.800,2076.277777777778,-1904.6296296296296,344.31481481481484,4878.425925925926,6293.666666666667
2026-01-10 20:41:53.820,2113.6666666666665,-1904.7777777777778,343.8888888888889,4878.555555555556,6294.0
2026-01-10 20:41:53.840,2151.0555555555557,-1904.9259259259259,343.462962962963,4878.685185185185,6294.333333333333
2026-01-10 20:41:53.860,2188.4444444444443,-1905.0740740740741,343.037037037037,4878.814814814815,6294.666666666667
2026-01-10 20:41:53.880,2225.833333333333,-1905.2222222222222,342.6111111111111,4878.944444444444,6295.0
2026-01-10 20:41:53.900,2263.222222222222,-1905.3703703703704,342.18518518518516,4879.074074074074,6295.333333333333
2026-01-10 20:41:53.920,2300.6111111111113,-1905.5185185185185,341.75925925925924,4879.2037037037035,6295.666666666667
2026-01-10 20:41:53.940,2338.0,-1905.6666666666667,341.3333333333333,4879.333333333333,6296.0
2026-01-10 20:41:53.960,2375.3888888888887,-1905.8148148148148,340.9074074074074,4879.462962962963,6296.333333333333
2026-01-10 20:41:53.980,2412.777777777778,-1905.962962962963,340.48148148148147,4879.592592592592,6296.666666666667
2026-01-10 20:41:54.000,2450.1666666666665,-1906.111111111111,340.05555555555554,4879.722222222223,6297.0
2026-01-10 20:41:54.020,2487.5555555555557,-1906.2592592592594,339.6296296296296,4879.851851851852,6297.333333333333
2026-01-10 20:41:54.040,2524.9444444444443,-1906.4074074074074,339.2037037037037,4879.981481481482,6297.666666666667
2026-01-10 20:41:54.060,2562.333333333333,-1906.5555555555557,338.77777777777777,4880.111111111111,6298.0
2026-01-10 20:41:54.080,2599.722222222222,-1906.7037037037037,338.35185185185185,4880.240740740741,6298.333333333333
2026-01-10 20:41:54.100,2637.1111111111113,-1906.851851851852,337.9259259259259,4880.37037037037,6298.666666666667
2026-01-10 20:41:54.120,2674.5,-1907.0,337.5,4880.5,6299.0
2026-01-10 20:41:54.140,2711.8888888888887,-1907.148148148148,337.0740740740741,4880.62962962963,6299.333333333333
2026-01-10 20:41:54.160,2749.2777777777774,-1907.2962962962963,336.64814814814815,4880.759259259259,6299.666666666667
2026-01-10 20:41:54.180,2786.6666666666665,-1907.4444444444443,336.22222222222223,4880.888888888889,6300.0
2026-01-10 20:41:54.200,2824.0555555555557,-1907.5925925925926,335.7962962962963,4881.018518518518,6300.333333333333
2026-01-10 20:41:54.220,2861.4444444444443,-1907.7407407407406,335.3703703703704,4881.148148148148,6300.666666666667
2026-01-10 20:41:54.240,2898.833333333333,-1907.888888888889,334.94444444444446,4881.277777777777,6301.0
2026-01-10 20:41:54.260,2936.222222222222,-1908.037037037037,334.51851851851853,4881.407407407408,6301.333333333333
2026-01-10 20:41:54.280,2973.6111111111113,-1908.1851851851852,334.0925925925926,4881.537037037037,6301.666666666667
2026-01-10 20:41:54.300,3011.0,-1908.3333333333333,333.6666666666667,4881.666666666667,6302.0
2026-01-10 20:41:54.320,3048.3888888888887,-1908.4814814814815,333.24074074074076,4881.7962962962965,6302.333333333333
2026-01-10 20:41:54.340,3085.7777777777774,-1908.6296296296296,332.81481481481484,4881.925925925926,6302.666666666667
2026-01-10 20:41:54.360,3123.1666666666665,-1908.7777777777778,332.3888888888889,4882.055555555556,6303.0
2026-01-10 20:41:54.380,3160.5555555555557,-1908.9259259259259,331.96296296296293,4882.185185185185,6303.333333333333
2026-01-10 20:41:54.400,3197.9444444444443,-1909.0740740740741,331.53703703703707,4882.314814814815,6303.666666666667
2026-01-10 20:41:54.420,3235.333333333333,-1909.2222222222222,331.1111111111111,4882.444444444444,6304.0
2026-01-10 20:41:54.440,3272.722222222222,-1909.3703703703704,330.68518518518516,4882.574074074074,6304.333333333333
2026-01-10 20:41:54.460,3310.111111111111,-1909.5185185185185,330.25925925925924,4882.7037037037035,6304.666666666667
2026-01-10 20:41:54.480,3347.5,-1909.6666666666667,329.8333333333333,4882.833333333333,6305.0
2026-01-10 20:41:54.500,3384.8888888888887,-1909.8148148148148,329.4074074074074,4882.962962962963,6305.333333333333
2026-01-10 20:41:54.520,3422.2777777777774,-1909.962962962963,328.98148148148147,4883.092592592592,6305.666666666667
2026-01-10 20:41:54.540,3459.6666666666665,-1910.111111111111,328.55555555555554,4883.222222222223,6306.0
2026-01-10 20:41:54.560,3497.0555555555557,-1910.2592592592594,328.1296296296296,4883.351851851852,6306.333333333333
2026-01-10 20:41:54.580,3534.4444444444443,-1910.4074074074074,327.7037037037037,4883.481481481482,6306.666666666667
2026-01-10 20:41:54.600,3571.833333333333,-1910.5555555555557,327.27777777777777,4883.611111111111,6307.0
2026-01-10 20:41:54.620,3609.222222222222,-1910.7037037037037,326.85185185185185,4883.740740740741,6307.333333333333
2026-01-10 20:41:54.640,3646.611111111111,-1910.851851851852,326.4259259259259,4883.87037037037,6307.666666666667
2026-01-10 20:41:54.660,3684.0,-1911.0,326.0,4884.0,6308.0
2026-01-10 20:41:54.680,3684.425925925926,-1909.5555555555557,325.85185185185185,4883.729166666667,6307.479166666667
2026-01-10 20:41:54.700,3684.8518518518517,-1908.111111111111,325.7037037037037,4883.458333333333,6306.958333333333
2026-01-10 20:41:54.720,3685.277777777778,-1906.6666666666667,325.55555555555554,4883.1875,6306.4375
2026-01-10 20:41:54.740,3685.703703703704,-1905.2222222222222,325.4074074074074,4882.916666666667,6305.916666666667
2026-01-10 20:41:54.760,3686.1296296296296,-1903.7777777777778,325.25925925925924,4882.645833333333,6305.395833333333
2026-01-10 20:41:54.780,3686.5555555555557,-1902.3333333333333,325.1111111111111,4882.375,6304.875
2026-01-10 20:41:54.800,3686.9814814814813,-1900.888888888889,324.962962962963,4882.104166666667,6304.354166666667
2026-01-10 20:41:54.820,3687.4074074074074,-1899.4444444444443,324.81481481481484,4881.833333333333,6303.833333333333
2026-01-10 20:41:54.840,3687.8333333333335,-1898.0,324.6666666666667,4881.5625,6303.3125
2026-01-10 20:41:54.860,3688.259259259259,-1896.5555555555557,324.51851851851853,4881.291666666667,6302.791666666667
2026-01-10 20:41:54.880,3688.685185185185,-1895.111111111111,324.3703703703704,4881.020833333333,6302.270833333333
2026-01-10 20:41:54.900,3689.1111111111113,-1893.6666666666667,324.22222222222223,4880.75,6301.75
2026-01-10 20:41:54.920,3689.537037037037,-1892.2222222222222,324.0740740740741,4880.479166666667,6301.229166666667
2026-01-10 20:41:54.940,3689.962962962963,-1890.7777777777778,323.9259259259259,4880.208333333333,6300.708333333333
2026-01-10 20:41:54.960,3690.3888888888887,-1889.3333333333333,323.77777777777777,4879.9375,6300.1875
2026-01-10 20:41:54.980,3690.814814814815,-1887.888888888889,323.6296296296296,4879.666666666667,6299.666666666667
2026-01-10 20:41:55.000,3691.240740740741,-1886.4444444444443,323.48148148148147,4879.395833333333,6299.145833333333
2026-01-10 20:41:55.020,3691.6666666666665,-1885.0,323.3333333333333,4879.125,6298.625
2026-01-10 20:41:55.040,3692.0925925925926,-1883.5555555555557,323.18518518518516,4878.854166666667,6298.104166666667
2026-01-10 20:41:55.060,3692.5185185185187,-1882.111111111111,323.037037037037,4878.583333333333,6297.583333333333
2026-01-10 20:41:55.080,3692.9444444444443,-1880.6666666666667,322.8888888888889,4878.3125,6297.0625
2026-01-10 20:41:55.100,3693.3703703703704,-1879.2222222222222,322.74074074074076,4878.041666666667,6296.541666666667
2026-01-10 20:41:55.120,3693.796296296296,-1877.7777777777778,322.5925925925926,4877.770833333333,6296.020833333333
2026-01-10 20:41:55.140,3694.222222222222,-1876.3333333333333,322.44444444444446,4877.5,6295.5
2026-01-10 20:41:55.160,3694.6481481481483,-1874.888888888889,322.2962962962963,4877.229166666667,6294.979166666667
2026-01-10 20:41:55.180,3695.074074074074,-1873.4444444444443,322.14814814814815,4876.958333333333,6294.458333333333
2026-01-10 20:41:55.200,3695.5,-1872.0,322.0,4876.6875,6293.9375
2026-01-10 20:41:55.220,3695.925925925926,-1870.5555555555557,321.85185185185185,4876.416666666667,6293.416666666667
2026-01-10 20:41:55.240,3696.3518518518517,-1869.111111111111,321.7037037037037,4876.145833333333,6292.895833333333
2026-01-10 20:41:55.260,3696.777777777778,-1867.6666666666667,321.55555555555554,4875.875,6292.375
2026-01-10 20:41:55.280,3697.203703703704,-1866.2222222222222,321.4074074074074,4875.604166666667,6291.854166666667
2026-01-10 20:41:55.300,3697.6296296296296,-1864.7777777777778,321.25925925925924,4875.333333333333,6291.333333333333
2026-01-10 20:41:55.320,3698.0555555555557,-1863.3333333333333,321.1111111111111,4875.0625,6290.8125
2026-01-10 20:41:55.340,3698.4814814814813,-1861.888888888889,320.962962962963,4874.791666666667,6290.291666666667
2026-01-10 20:41:55.360,3698.9074074074074,-1860.4444444444443,320.81481481481484,4874.520833333333,6289.770833333333
2026-01-10 20:41:55.380,3699.3333333333335,-1859.0,320.6666666666667,4874.25,6289.25
2026-01-10 20:41:55.400,3699.759259259259,-1857.5555555555557,320.51851851851853,4873.979166666667,6288.729166666667
2026-01-10 20:41:55.420,3700.185185185185,-1856.111111111111,320.3703703703704,4873.708333333333,6288.208333333333
2026-01-10 20:41:55.440,3700.6111111111113,-1854.6666666666667,320.22222222222223,4873.4375,6287.6875
2026-01-10 20:41:55.460,3701.037037037037,-1853.2222222222222,320.0740740740741,4873.166666666667,6287.166666666667
2026-01-10 20:41:55.480,3701.462962962963,-1851.7777777777778,319.9259259259259,4872.895833333333,6286.645833333333
2026-01-10 20:41:55.500,3701.8888888888887,-1850.3333333333333,319.77777777777777,4872.625,6286.125
2026-01-10 20:41:55.520,3702.314814814815,-1848.888888888889,319.6296296296296,4872.354166666667,6285.604166666667
2026-01-10 20:41:55.540,3702.740740740741,-1847.4444444444443,319.48148148148147,4872.083333333333,6285.083333333333
2026-01-10 20:41:55.560,3703.1666666666665,-1846.0,319.3333333333333,4871.8125,6284.5625
2026-01-10 20:41:55.580,3703.5925925925926,-1844.5555555555557,319.18518518518516,4871.541666666667,6284.041666666667
2026-01-10 20:41:55.600,3704.0185185185187,-1843.111111111111,319.037037037037,4871.270833333333,6283.520833333333
2026-01-10 20:41:55.620,3704.4444444444443,-1841.6666666666667,318.8888888888889,4871.0,6283.0
2026-01-10 20:41:55.640,3704.8703703703704,-1840.2222222222222,318.74074074074076,4871.208333333333,6283.4375
2026-01-10 20:41:55.660,3705.296296296296,-1838.7777777777778,318.5925925925926,4871.416666666667,6283.875
2026-01-10 20:41:55.680,3705.722222222222,-1837.3333333333333,318.44444444444446,4871.625,6284.3125
2026-01-10 20:41:55.700,3706.1481481481483,-1835.888888888889,318.2962962962963,4871.833333333333,6284.75
2026-01-10 20:41:55.720,3706.574074074074,-1834.4444444444443,318.14814814814815,4872.041666666667,6285.1875
2026-01-10 20:41:55.740,3707.0,-1833.0,318.0,4872.25,6285.625
2026-01-10 20:41:55.760,3706.809523809524,-1833.9285714285713,316.7857142857143,4872.458333333333,6286.0625
2026-01-10 20:41:55.780,3706.6190476190477,-1834.857142857143,315.57142857142856,4872.666666666667,6286.5
2026-01-10 20:41:55.800,3706.4285714285716,-1835.7857142857142,314.35714285714283,4872.875,6286.9375
2026-01-10 20:41:55.820,3706.2380952380954,-1836.7142857142858,313.14285714285717,4873.083333333333,6287.375
2026-01-10 20:41:55.840,3706.0476190476193,-1837.642857142857,311.92857142857144,4873.291666666667,6287.8125
2026-01-10 20:41:55.860,3705.8571428571427,-1838.5714285714287,310.7142857142857,4873.5,6288.25
2026-01-10 20:41:55.880,3705.6666666666665,-1839.5,309.5,4873.708333333333,6288.6875
2026-01-10 20:41:55.900,3705.4761904761904,-1840.4285714285713,308.2857142857143,4873.916666666667,6289.125
2026-01-10 20:41:55.920,3705.285714285714,-1841.357142857143,307.07142857142856,4874.125,6289.5625
2026-01-10 20:41:55.940,3705.095238095238,-1842.2857142857142,305.85714285714283,4874.333333333333,6290.0
2026-01-10 20:41:55.960,3704.904761904762,-1843.2142857142858,304.64285714285717,4874.541666666667,6290.4375
2026-01-10 20:41:55.980,3704.714285714286,-1844.142857142857,303.42857142857144,4874.75,6290.875
2026-01-10 20:41:56.000,3704.5238095238096,-1845.0714285714287,302.2142857142857,4874.958333333333,6291.3125
2026-01-10 20:41:56.020,3704.3333333333335,-1846.0,301.0,4875.166666666667,6291.75
2026-01-10 20:41:56.040,3704.1428571428573,-1846.9285714285713,299.7857142857143,4875.375,6292.1875
2026-01-10 20:41:56.060,3703.9523809523807,-1847.857142857143,298.57142857142856,4875.583333333333,6292.625
2026-01-10 20:41:56.080,3703.7619047619046,-1848.7857142857142,297.35714285714283,4875.791666666667,6293.0625
2026-01-10 20:41:56.100,3703.5714285714284,-1849.7142857142858,296.14285714285717,4876.0,6293.5
2026-01-10 20:41:56.120,3703.3809523809523,-1850.642857142857,294.92857142857144,4876.208333333333,6293.9375
2026-01-10 20:41:56.140,3703.190476190476,-1851.5714285714287,293.7142857142857,4876.416666666667,6294.375
2026-01-10 20:41:56.160,3703.0,-1852.5,292.5,4876.625,6294.8125
2026-01-10 20:41:56.180,3702.809523809524,-1853.4285714285713,291.2857142857143,4876.833333333333,6295.25
2026-01-10 20:41:56.200,3702.6190476190477,-1854.357142857143,290.07142857142856,4877.041666666667,6295.6875
2026-01-10 20:41:56.220,3702.4285714285716,-1855.2857142857142,288.8571428571429,4877.25,6296.125
2026-01-10 20:41:56.240,3702.2380952380954,-1856.2142857142858,287.64285714285717,4877.458333333333,6296.5625
2026-01-10 20:41:56.260,3702.0476190476193,-1857.142857142857,286.42857142857144,4877.666666666667,6297.0
2026-01-10 20:41:56.280,3701.8571428571427,-1858.0714285714287,285.2142857142857,4877.875,6297.4375
2026-01-10 20:41:56.300,3701.6666666666665,-1859.0,284.0,4878.083333333333,6297.875
2026-01-10 20:41:56.320,3701.4761904761904,-1859.9285714285713,282.7857142857143,4878.291666666667,6298.3125
2026-01-10 20:41:56.340,3701.285714285714,-1860.857142857143,281.57142857142856,4878.5,6298.75
2026-01-10 20:41:56.360,3701.095238095238,-1861.7857142857142,280.3571428571429,4878.708333333333,6299.1875
2026-01-10 20:41:56.380,3700.904761904762,-1862.7142857142858,279.14285714285717,4878.916666666667,6299.625
2026-01-10 20:41:56.400,3700.714285714286,-1863.642857142857,277.92857142857144,4879.125,6300.0625
2026-01-10 20:41:56.420,3700.5238095238096,-1864.5714285714287,276.7142857142857,4879.333333333333,6300.5
2026-01-10 20:41:56.440,3700.3333333333335,-1865.5,275.5,4879.541666666667,6300.9375
2026-01-10 20:41:56.460,3700.1428571428573,-1866.4285714285713,274.2857142857143,4879.75,6301.375
2026-01-10 20:41:56.480,3699.9523809523807,-1867.357142857143,273.07142857142856,4879.958333333333,6301.8125
2026-01-10 20:41:56.500,3699.7619047619046,-1868.2857142857142,271.8571428571429,4880.166666666667,6302.25
2026-01-10 20:41:56.520,3699.5714285714284,-1869.2142857142858,270.64285714285717,4880.375,6302.6875
2026-01-10 20:41:56.540,3699.3809523809523,-1870.142857142857,269.42857142857144,4880.583333333333,6303.125
2026-01-10 20:41:56.560,3699.190476190476,-1871.0714285714287,268.2142857142857,4880.791666666667,6303.5625
2026-01-10 20:41:56.580,3699.0,-1872.0,267.0,4881.0,6304.0
2026-01-10 20:41:56.600,3662.8518518518517,-1799.5555555555557,228.16666666666666,4880.814814814815,6303.5
2026-01-10 20:41:56.620,3626.703703703704,-1727.111111111111,189.33333333333331,4880.62962962963,6303.0
2026-01-10 20:41:56.640,3590.5555555555557,-1654.6666666666667,150.5,4880.444444444444,6302.5
2026-01-10 20:41:56.660,3554.4074074074074,-1582.2222222222222,111.66666666666666,4880.259259259259,6302.0
2026-01-10 20:41:56.680,3518.259259259259,-1509.7777777777778,72.83333333333331,4880.074074074074,6301.5
2026-01-10 20:41:56.700,3482.1111111111113,-1437.3333333333335,34.0,4879.888888888889,6301.0
2026-01-10 20:41:56.720,3445.962962962963,-1364.888888888889,-4.833333333333371,4879.7037037037035,6300.5
2026-01-10 20:41:56.740,3409.814814814815,-1292.4444444444443,-43.666666666666686,4879.518518518518,6300.0
2026-01-10 20:41:56.760,3373.6666666666665,-1220.0,-82.5,4879.333333333333,6299.5
2026-01-10 20:41:56.780,3337.5185185185187,-1147.5555555555557,-121.33333333333337,4879.148148148148,6299.0
2026-01-10 20:41:56.800,3301.3703703703704,-1075.111111111111,-160.16666666666669,4878.962962962963,6298.5
2026-01-10 20:41:56.820,3265.222222222222,-1002.6666666666667,-199.0,4878.777777777777,6298.0
2026-01-10 20:41:56.840,3229.074074074074,-930.2222222222223,-237.83333333333337,4878.592592592592,6297.5
2026-01-10 20:41:56.860,3192.925925925926,-857.7777777777778,-276.66666666666674,4878.407407407408,6297.0
2026-01-10 20:41:56.880,3156.777777777778,-785.3333333333333,-315.5,4878.222222222223,6296.5
2026-01-10 20:41:56.900,3120.6296296296296,-712.8888888888889,-354.33333333333337,4878.037037037037,6296.0
2026-01-10 20:41:56.920,3084.4814814814818,-640.4444444444446,-393.16666666666674,4877.851851851852,6295.5
2026-01-10 20:41:56.940,3048.3333333333335,-568.0,-432.0,4877.666666666667,6295.0
2026-01-10 20:41:56.960,3012.185185185185,-495.55555555555566,-470.83333333333337,4877.481481481482,6294.5
2026-01-10 20:41:56.980,2976.037037037037,-423.1111111111111,-509.66666666666674,4877.2962962962965,6294.0
2026-01-10 20:41:57.000,2939.8888888888887,-350.66666666666674,-548.5,4877.111111111111,6293.5
2026-01-10 20:41:57.020,2903.740740740741,-278.2222222222222,-587.3333333333334,4876.925925925926,6293.0
2026-01-10 20:41:57.040,2867.5925925925926,-205.77777777777783,-626.1666666666667,4876.740740740741,6292.5
2026-01-10 20:41:57.060,2831.4444444444443,-133.33333333333348,-665.0,4876.555555555556,6292.0
2026-01-10 20:41:57.080,2795.2962962962965,-60.888888888888914,-703.8333333333334,4876.37037037037,6291.5
2026-01-10 20:41:57.100,2759.1481481481483,11.55555555555543,-742.6666666666667,4876.185185185185,6291.0
2026-01-10 20:41:57.120,2723.0,84.0,-781.5,4876.0,6290.5
2026-01-10 20:41:57.140,2686.851851851852,156.44444444444434,-820.3333333333335,4875.814814814815,6290.0
2026-01-10 20:41:57.160,2650.7037037037035,228.8888888888887,-859.1666666666667,4875.62962962963,6289.5
2026-01-10 20:41:57.180,2614.5555555555557,301.3333333333335,-898.0,4875.444444444444,6289.0
2026-01-10 20:41:57.200,2578.4074074074074,373.7777777777778,-936.8333333333335,4875.259259259259,6288.5
2026-01-10 20:41:57.220,2542.259259259259,446.2222222222222,-975.6666666666667,4875.074074074074,6288.0
2026-01-10 20:41:57.240,2506.1111111111113,518.6666666666665,-1014.5,4874.888888888889,6287.5
2026-01-10 20:41:57.260,2469.962962962963,591.1111111111109,-1053.3333333333335,4874.7037037037035,6287.0
2026-01-10 20:41:57.280,2433.814814814815,663.5555555555557,-1092.1666666666667,4874.518518518518,6286.5
2026-01-10 20:41:57.300,2397.666666666667,736.0,-1131.0,4874.333333333333,6286.0
