accX,accY,accZ
3690.0,-1898.0,295.0
3690.3061224489797,-1897.7755102040817,294.9183673469388
3690.612244897959,-1897.5510204081634,294.83673469387753
3690.918367346939,-1897.3265306122448,294.7551020408163
3691.2244897959185,-1897.1020408163265,294.6734693877551
3691.530612244898,-1896.8775510204082,294.59183673469386
3691.8367346938776,-1896.6530612244899,294.51020408163265
3692.1428571428573,-1896.4285714285713,294.42857142857144
3692.4489795918366,-1896.204081632653,294.3469387755102
3692.7551020408164,-1895.9795918367347,294.265306122449
3693.061224489796,-1895.7551020408164,294.18367346938777
3693.3673469387754,-1895.530612244898,294.1020408163265
3693.673469387755,-1895.3061224489795,294.0204081632653
3693.9795918367345,-1895.0816326530612,293.9387755102041
3694.285714285714,-1894.857142857143,293.85714285714283
3694.591836734694,-1894.6326530612246,293.7755102040816
3694.8979591836733,-1894.408163265306,293.6938775510204
3695.204081632653,-1894.1836734693877,293.61224489795916
3695.5102040816328,-1893.9591836734694,293.53061224489795
3695.816326530612,-1893.734693877551,293.44897959183675
3696.122448979592,-1893.5102040816328,293.3673469387755
3696.4285714285716,-1893.2857142857142,293.2857142857143
3696.734693877551,-1893.061224489796,293.2040816326531
3697.0408163265306,-1892.8367346938776,293.1224489795918
3697.3469387755104,-1892.6122448979593,293.0408163265306
3697.6530612244896,-1892.3877551020407,292.9591836734694
3697.9591836734694,-1892.1632653061224,292.8775510204082
3698.265306122449,-1891.938775510204,292.7959183673469
3698.5714285714284,-1891.7142857142858,292.7142857142857
3698.877551020408,-1891.4897959183672,292.6326530612245
3699.183673469388,-1891.265306122449,292.55102040816325
3699.4897959183672,-1891.0408163265306,292.46938775510205
3699.795918367347,-1890.8163265306123,292.38775510204084
3700.1020408163267,-1890.591836734694,292.3061224489796
3700.408163265306,-1890.3673469387754,292.2244897959184
3700.714285714286,-1890.142857142857,292.14285714285717
3701.0204081632655,-1889.9183673469388,292.0612244897959
3701.326530612245,-1889.6938775510205,291.9795918367347
3701.6326530612246,-1889.469387755102,291.8979591836735
3701.938775510204,-1889.2448979591836,291.81632653061223
3702.2448979591836,-1889.0204081632653,291.734693877551
3702.5510204081634,-1888.795918367347,291.6530612244898
3702.8571428571427,-1888.5714285714287,291.57142857142856
3703.1632653061224,-1888.3469387755101,291.48979591836735
3703.469387755102,-1888.1224489795918,291.40816326530614
3703.7755102040815,-1887.8979591836735,291.3265306122449
3704.081632653061,-1887.6734693877552,291.2448979591837
3704.387755102041,-1887.4489795918366,291.16326530612247
3704.6938775510203,-1887.2244897959183,291.0816326530612
3705.0,-1887.0,291.0
3665.235294117647,-1886.8823529411766,291.96078431372547
3625.470588235294,-1886.764705882353,292.921568627451
3585.705882352941,-1886.6470588235295,293.88235294117646
3545.9411764705883,-1886.5294117647059,294.84313725490193
3506.176470588235,-1886.4117647058824,295.80392156862746
3466.4117647058824,-1886.2941176470588,296.7647058823529
3426.6470588235293,-1886.1764705882354,297.72549019607845
3386.8823529411766,-1886.0588235294117,298.6862745098039
3347.1176470588234,-1885.9411764705883,299.6470588235294
3307.3529411764707,-1885.8235294117646,300.6078431372549
3267.5882352941176,-1885.7058823529412,301.5686274509804
3227.823529411765,-1885.5882352941176,302.52941176470586
3188.0588235294117,-1885.4705882352941,303.4901960784314
3148.2941176470586,-1885.3529411764705,304.45098039215685
3108.529411764706,-1885.235294117647,305.4117647058824
3068.764705882353,-1885.1176470588234,306.37254901960785
3029.0,-1885.0,307.3333333333333
2989.235294117647,-1884.8823529411766,308.29411764705884
2949.470588235294,-1884.764705882353,309.2549019607843
2909.7058823529414,-1884.6470588235295,310.2156862745098
2869.9411764705883,-1884.5294117647059,311.1764705882353
2830.176470588235,-1884.4117647058824,312.1372549019608
2790.4117647058824,-1884.2941176470588,313.0980392156863
2750.6470588235293,-1884.1764705882354,314.05882352941177
2710.8823529411766,-1884.0588235294117,315.01960784313724
2671.1176470588234,-1883.9411764705883,315.98039215686276
2631.3529411764703,-1883.8235294117646,316.94117647058823
2591.5882352941176,-1883.7058823529412,317.9019607843137
2551.823529411765,-1883.5882352941176,318.8627450980392
2512.0588235294117,-1883.4705882352941,319.8235294117647
2472.2941176470586,-1883.3529411764705,320.7843137254902
2432.529411764706,-1883.235294117647,321.7450980392157
2392.764705882353,-1883.1176470588234,322.70588235294116
2353.0,-1883.0,323.6666666666667
2313.235294117647,-1882.8823529411766,324.62745098039215
2273.470588235294,-1882.764705882353,325.5882352941176
2233.7058823529414,-1882.6470588235295,326.54901960784315
2193.9411764705883,-1882.5294117647059,327.5098039215686
2154.176470588235,-1882.4117647058824,328.47058823529414
2114.4117647058824,-1882.2941176470588,329.4313725490196
2074.6470588235293,-1882.1764705882354,330.3921568627451
2034.8823529411764,-1882.0588235294117,331.3529411764706
1995.1176470588234,-1881.9411764705883,332.3137254901961
1955.3529411764705,-1881.8235294117646,333.27450980392155
1915.5882352941176,-1881.7058823529412,334.2352941176471
1875.8235294117646,-1881.5882352941176,335.19607843137254
1836.0588235294117,-1881.4705882352941,336.156862745098
1796.2941176470588,-1881.3529411764705,337.11764705882354
1756.5294117647059,-1881.235294117647,338.078431372549
1716.764705882353,-1881.1176470588234,339.03921568627453
1677.0,-1881.0,340.0
1717.48,-1880.24,338.8
1757.96,-1879.48,337.6
1798.44,-1878.72,336.4
1838.92,-1877.96,335.2
1879.4,-1877.2,334.0
1919.88,-1876.44,332.8
1960.36,-1875.68,331.6
2000.84,-1874.92,330.4
2041.32,-1874.16,329.2
2081.8,-1873.4,328.0
2122.2799999999997,-1872.64,326.8
2162.76,-1871.88,325.6
2203.24,-1871.12,324.4
2243.72,-1870.36,323.2
2284.2,-1869.6,322.0
2324.68,-1868.84,320.8
2365.16,-1868.08,319.6
2405.64,-1867.32,318.4
2446.12,-1866.56,317.2
2486.6,-1865.8,316.0
2527.08,-1865.04,314.8
2567.56,-1864.28,313.6
2608.04,-1863.52,312.4
2648.52,-1862.76,311.2
2689.0,-1862.0,310.0
2729.48,-1861.24,308.8
2769.96,-1860.48,307.6
2810.4399999999996,-1859.72,306.4
2850.92,-1858.96,305.2
2891.3999999999996,-1858.2,304.0
2931.88,-1857.44,302.8
2972.3599999999997,-1856.68,301.6
3012.84,-1855.92,300.4
3053.3199999999997,-1855.16,299.2
3093.8,-1854.4,298.0
3134.2799999999997,-1853.64,296.8
3174.76,-1852.88,295.6
3215.24,-1852.12,294.4
3255.72,-1851.36,293.2
3296.2,-1850.6,292.0
3336.68,-1849.84,290.8
3377.16,-1849.08,289.6
3417.64,-1848.32,288.4
3458.12,-1847.56,287.2
3498.6,-1846.8,286.0
3539.08,-1846.04,284.8
3579.56,-1845.28,283.6
3620.04,-1844.52,282.4
3660.5199999999995,-1843.76,281.2
3701.0,-1843.0,280.0
3661.235294117647,-1843.549019607843,280.47058823529414
3621.470588235294,-1844.0980392156862,280.94117647058823
3581.705882352941,-1844.6470588235295,281.4117647058824
3541.9411764705883,-1845.1960784313726,281.88235294117646
3502.176470588235,-1845.7450980392157,282.3529411764706
3462.4117647058824,-1846.2941176470588,282.8235294117647
3422.6470588235293,-1846.8431372549019,283.29411764705884
3382.8823529411766,-1847.3921568627452,283.7647058823529
3343.1176470588234,-1847.9411764705883,284.2352941176471
3303.3529411764707,-1848.4901960784314,284.70588235294116
3263.5882352941176,-1849.0392156862745,285.1764705882353
3223.823529411765,-1849.5882352941176,285.6470588235294
3184.0588235294117,-1850.137254901961,286.11764705882354
3144.2941176470586,-1850.686274509804,286.5882352941176
3104.529411764706,-1851.235294117647,287.05882352941177
3064.764705882353,-1851.7843137254902,287.52941176470586
3025.0,-1852.3333333333333,288.0
2985.235294117647,-1852.8823529411766,288.47058823529414
2945.470588235294,-1853.4313725490197,288.94117647058823
2905.7058823529414,-1853.9803921568628,289.4117647058824
2865.9411764705883,-1854.5294117647059,289.88235294117646
2826.176470588235,-1855.078431372549,290.3529411764706
2786.4117647058824,-1855.6274509803923,290.8235294117647
2746.6470588235293,-1856.1764705882354,291.29411764705884
2706.8823529411766,-1856.7254901960785,291.7647058823529
2667.1176470588234,-1857.2745098039215,292.2352941176471
2627.3529411764703,-1857.8235294117646,292.70588235294116
2587.5882352941176,-1858.372549019608,293.1764705882353
2547.823529411765,-1858.921568627451,293.6470588235294
2508.0588235294117,-1859.4705882352941,294.11764705882354
2468.2941176470586,-1860.0196078431372,294.5882352941176
2428.529411764706,-1860.5686274509803,295.05882352941177
2388.764705882353,-1861.1176470588234,295.52941176470586
2349.0,-1861.6666666666667,296.0
2309.235294117647,-1862.2156862745098,296.47058823529414
2269.470588235294,-1862.764705882353,296.94117647058823
2229.7058823529414,-1863.313725490196,297.4117647058824
2189.9411764705883,-1863.862745098039,297.88235294117646
2150.176470588235,-1864.4117647058824,298.3529411764706
2110.4117647058824,-1864.9607843137255,298.8235294117647
2070.6470588235293,-1865.5098039215686,299.29411764705884
2030.8823529411764,-1866.0588235294117,299.7647058823529
1991.1176470588234,-1866.6078431372548,300.2352941176471
1951.3529411764705,-1867.1568627450981,300.70588235294116
1911.5882352941176,-1867.7058823529412,301.1764705882353
1871.8235294117646,-1868.2549019607843,301.6470588235294
1832.0588235294117,-1868.8039215686274,302.11764705882354
1792.2941176470588,-1869.3529411764705,302.5882352941176
1752.5294117647059,-1869.9019607843138,303.05882352941177
1712.764705882353,-1870.450980392157,303.52941176470586
1673.0,-1871.0,304.0
1713.1836734693877,-1869.6530612244899,305.0408163265306
1753.3673469387754,-1868.3061224489795,306.0816326530612
1793.5510204081634,-1866.9591836734694,307.1224489795918
1833.734693877551,-1865.6122448979593,308.16326530612247
1873.9183673469388,-1864.265306122449,309.2040816326531
1914.1020408163265,-1862.9183673469388,310.2448979591837
1954.2857142857142,-1861.5714285714287,311.2857142857143
1994.4693877551022,-1860.2244897959183,312.3265306122449
2034.6530612244899,-1858.8775510204082,313.3673469387755
2074.8367346938776,-1857.530612244898,314.40816326530614
2115.0204081632655,-1856.1836734693877,315.44897959183675
2155.204081632653,-1854.8367346938776,316.48979591836735
2195.387755102041,-1853.4897959183672,317.53061224489795
2235.5714285714284,-1852.142857142857,318.57142857142856
2275.7551020408164,-1850.795918367347,319.61224489795916
2315.9387755102043,-1849.4489795918366,320.6530612244898
2356.122448979592,-1848.1020408163265,321.6938775510204
2396.3061224489797,-1846.7551020408164,322.734693877551
2436.4897959183672,-1845.408163265306,323.7755102040816
2476.673469387755,-1844.061224489796,324.81632653061223
2516.857142857143,-1842.7142857142858,325.85714285714283
2557.0408163265306,-1841.3673469387754,326.8979591836735
2597.2244897959185,-1840.0204081632653,327.9387755102041
2637.408163265306,-1838.6734693877552,328.9795918367347
2677.591836734694,-1837.3265306122448,330.0204081632653
2717.775510204082,-1835.9795918367347,331.0612244897959
2757.9591836734694,-1834.6326530612246,332.1020408163265
2798.142857142857,-1833.2857142857142,333.14285714285717
2838.326530612245,-1831.938775510204,334.18367346938777
2878.5102040816328,-1830.591836734694,335.2244897959184
2918.6938775510207,-1829.2448979591836,336.265306122449
2958.877551020408,-1827.8979591836735,337.3061224489796
2999.0612244897957,-1826.5510204081634,338.3469387755102
3039.2448979591836,-1825.204081632653,339.38775510204084
3079.4285714285716,-1823.857142857143,340.42857142857144
3119.6122448979595,-1822.5102040816328,341.46938775510205
3159.795918367347,-1821.1632653061224,342.51020408163265
3199.9795918367345,-1819.8163265306123,343.55102040816325
3240.1632653061224,-1818.469387755102,344.59183673469386
3280.3469387755104,-1817.1224489795918,345.63265306122446
3320.5306122448983,-1815.7755102040817,346.6734693877551
3360.714285714286,-1814.4285714285713,347.7142857142857
3400.8979591836733,-1813.0816326530612,348.7551020408163
3441.081632653061,-1811.734693877551,349.7959183673469
3481.265306122449,-1810.3877551020407,350.83673469387753
3521.448979591837,-1809.0408163265306,351.8775510204082
3561.6326530612246,-1807.6938775510205,352.9183673469388
3601.816326530612,-1806.3469387755101,353.9591836734694
3642.0,-1805.0,355.0
3643.14,-1806.12,354.62
3644.28,-1807.24,354.24
3645.42,-1808.36,353.86
3646.56,-1809.48,353.48
3647.7,-1810.6,353.1
3648.84,-1811.72,352.72
3649.98,-1812.84,352.34
3651.12,-1813.96,351.96
3652.26,-1815.08,351.58
3653.4,-1816.2,351.2
3654.54,-1817.32,350.82
3655.68,-1818.44,350.44
3656.82,-1819.56,350.06
3657.96,-1820.68,349.68
3659.1,-1821.8,349.3
3660.24,-1822.92,348.92
3661.38,-1824.04,348.54
3662.52,-1825.16,348.16
3663.66,-1826.28,347.78
3664.8,-1827.4,347.4
3665.94,-1828.52,347.02
3667.08,-1829.64,346.64
3668.22,-1830.76,346.26
3669.36,-1831.88,345.88
3670.5,-1833.0,345.5
3671.64,-1834.12,345.12
3672.78,-1835.24,344.74
3673.92,-1836.36,344.36
3675.06,-1837.48,343.98
3676.2,-1838.6,343.6
3677.34,-1839.72,343.22
3678.48,-1840.84,342.84
3679.62,-1841.96,342.46
3680.76,-1843.08,342.08
3681.9,-1844.2,341.7
3683.04,-1845.32,341.32
3684.18,-1846.44,340.94
3685.32,-1847.56,340.56
3686.46,-1848.68,340.18
3687.6,-1849.8,339.8
3688.74,-1850.92,339.42
3689.88,-1852.04,339.04
3691.02,-1853.16,338.66
3692.16,-1854.28,338.28
3693.3,-1855.4,337.9
3694.44,-1856.52,337.52
3695.58,-1857.64,337.14
3696.72,-1858.76,336.76
3697.86,-1859.88,336.38
3699.0,-1861.0,336.0
3698.673469387755,-1861.857142857143,335.0816326530612
3698.3469387755104,-1862.7142857142858,334.16326530612247
3698.0204081632655,-1863.5714285714287,333.2448979591837
3697.6938775510203,-1864.4285714285713,332.3265306122449
3697.3673469387754,-1865.2857142857142,331.40816326530614
3697.0408163265306,-1866.142857142857,330.48979591836735
3696.714285714286,-1867.0,329.57142857142856
3696.387755102041,-1867.857142857143,328.6530612244898
3696.061224489796,-1868.7142857142858,327.734693877551
3695.734693877551,-1869.5714285714287,326.81632653061223
3695.408163265306,-1870.4285714285713,325.8979591836735
3695.081632653061,-1871.2857142857142,324.9795918367347
3694.7551020408164,-1872.142857142857,324.0612244897959
3694.4285714285716,-1873.0,323.14285714285717
3694.1020408163267,-1873.857142857143,322.2244897959184
3693.7755102040815,-1874.7142857142858,321.3061224489796
3693.4489795918366,-1875.5714285714287,320.38775510204084
3693.122448979592,-1876.4285714285713,319.46938775510205
3692.795918367347,-1877.2857142857142,318.55102040816325
3692.469387755102,-1878.142857142857,317.63265306122446
3692.1428571428573,-1879.0,316.7142857142857
3691.816326530612,-1879.857142857143,315.7959183673469
3691.4897959183672,-1880.7142857142858,314.8775510204082
3691.1632653061224,-1881.5714285714287,313.9591836734694
3690.8367346938776,-1882.4285714285713,313.0408163265306
3690.5102040816328,-1883.2857142857142,312.1224489795918
3690.183673469388,-1884.142857142857,311.2040816326531
3689.8571428571427,-1885.0,310.2857142857143
3689.530612244898,-1885.857142857143,309.3673469387755
3689.204081632653,-1886.7142857142858,308.44897959183675
3688.877551020408,-1887.5714285714287,307.53061224489795
3688.5510204081634,-1888.4285714285713,306.61224489795916
3688.2244897959185,-1889.2857142857142,305.6938775510204
3687.8979591836733,-1890.142857142857,304.7755102040816
3687.5714285714284,-1891.0,303.85714285714283
3687.2448979591836,-1891.857142857143,302.9387755102041
3686.918367346939,-1892.7142857142858,302.0204081632653
3686.591836734694,-1893.5714285714287,301.1020408163265
3686.265306122449,-1894.4285714285713,300.18367346938777
3685.938775510204,-1895.2857142857142,299.265306122449
3685.612244897959,-1896.142857142857,298.3469387755102
3685.285714285714,-1897.0,297.42857142857144
3684.9591836734694,-1897.857142857143,296.51020408163265
3684.6326530612246,-1898.7142857142858,295.59183673469386
3684.3061224489797,-1899.5714285714287,294.6734693877551
3683.9795918367345,-1900.4285714285713,293.7551020408163
3683.6530612244896,-1901.2857142857142,292.83673469387753
3683.326530612245,-1902.142857142857,291.9183673469388
3683.0,-1903.0,291.0
3683.235294117647,-1902.1960784313726,291.1764705882353
3683.470588235294,-1901.3921568627452,291.3529411764706
3683.705882352941,-1900.5882352941176,291.52941176470586
3683.9411764705883,-1899.7843137254902,291.70588235294116
3684.176470588235,-1898.9803921568628,291.88235294117646
3684.4117647058824,-1898.1764705882354,292.05882352941177
3684.6470588235293,-1897.3725490196077,292.2352941176471
3684.8823529411766,-1896.5686274509803,292.4117647058824
3685.1176470588234,-1895.764705882353,292.5882352941176
3685.3529411764707,-1894.9607843137255,292.7647058823529
3685.5882352941176,-1894.1568627450981,292.94117647058823
3685.823529411765,-1893.3529411764705,293.11764705882354
3686.0588235294117,-1892.549019607843,293.29411764705884
3686.294117647059,-1891.7450980392157,293.47058823529414
3686.529411764706,-1890.9411764705883,293.6470588235294
3686.764705882353,-1890.137254901961,293.8235294117647
3687.0,-1889.3333333333333,294.0
3687.235294117647,-1888.5294117647059,294.1764705882353
3687.470588235294,-1887.7254901960785,294.3529411764706
3687.705882352941,-1886.921568627451,294.52941176470586
3687.9411764705883,-1886.1176470588234,294.70588235294116
3688.176470588235,-1885.313725490196,294.88235294117646
3688.4117647058824,-1884.5098039215686,295.05882352941177
3688.6470588235293,-1883.7058823529412,295.2352941176471
3688.8823529411766,-1882.9019607843138,295.4117647058824
3689.1176470588234,-1882.0980392156862,295.5882352941176
3689.3529411764707,-1881.2941176470588,295.7647058823529
3689.5882352941176,-1880.4901960784314,295.94117647058823
3689.823529411765,-1879.686274509804,296.11764705882354
3690.0588235294117,-1878.8823529411766,296.29411764705884
3690.294117647059,-1878.078431372549,296.47058823529414
3690.529411764706,-1877.2745098039215,296.6470588235294
3690.764705882353,-1876.4705882352941,296.8235294117647
3691.0,-1875.6666666666667,297.0
3691.235294117647,-1874.862745098039,297.1764705882353
3691.470588235294,-1874.0588235294117,297.3529411764706
3691.705882352941,-1873.2549019607843,297.52941176470586
3691.9411764705883,-1872.450980392157,297.70588235294116
3692.176470588235,-1871.6470588235295,297.88235294117646
3692.4117647058824,-1870.8431372549019,298.05882352941177
3692.6470588235293,-1870.0392156862745,298.2352941176471
3692.8823529411766,-1869.235294117647,298.4117647058824
3693.1176470588234,-1868.4313725490197,298.5882352941176
3693.3529411764707,-1867.627450980392,298.7647058823529
3693.5882352941176,-1866.8235294117646,298.94117647058823
3693.823529411765,-1866.0196078431372,299.11764705882354
3694.0588235294117,-1865.2156862745098,299.29411764705884
3694.294117647059,-1864.4117647058824,299.47058823529414
3694.529411764706,-1863.6078431372548,299.6470588235294
3694.764705882353,-1862.8039215686274,299.8235294117647
3695.0,-1862.0,300.0
3655.44,-1823.3,301.12
3615.88,-1784.6,302.24
3576.32,-1745.9,303.36
3536.76,-1707.2,304.48
3497.2,-1668.5,305.6
3457.64,-1629.8,306.72
3418.08,-1591.1,307.84
3378.52,-1552.4,308.96
3338.96,-1513.7,310.08
3299.4,-1475.0,311.2
3259.84,-1436.3,312.32
3220.2799999999997,-1397.6,313.44
3180.7200000000003,-1358.9,314.56
3141.16,-1320.1999999999998,315.68
3101.6,-1281.5,316.8
3062.04,-1242.8,317.92
3022.48,-1204.1,319.04
2982.92,-1165.4,320.16
2943.3599999999997,-1126.6999999999998,321.28
2903.8,-1088.0,322.4
2864.24,-1049.3,323.52
2824.68,-1010.5999999999999,324.64
2785.12,-971.9,325.76
2745.56,-933.1999999999999,326.88
2706.0,-894.4999999999999,328.0
2666.44,-855.8,329.12
2626.88,-817.0999999999999,330.24
2587.3199999999997,-778.3999999999999,331.36
2547.76,-739.6999999999998,332.48
2508.2,-701.0,333.6
2468.64,-662.3,334.72
2429.08,-623.5999999999999,335.84000000000003
2389.52,-584.8999999999999,336.96
2349.96,-546.1999999999998,338.08
2310.3999999999996,-507.5,339.2
2270.84,-468.79999999999995,340.32
2231.2799999999997,-430.0999999999999,341.44
2191.72,-391.39999999999986,342.56
2152.16,-352.6999999999998,343.68
2112.6,-314.0,344.8
2073.04,-275.29999999999995,345.92
2033.48,-236.5999999999999,347.04
1993.9199999999998,-197.89999999999986,348.16
1954.36,-159.19999999999982,349.28
1914.8,-120.49999999999977,350.4
1875.2399999999998,-81.79999999999995,351.52
1835.6799999999998,-43.09999999999991,352.64
1796.12,-4.399999999999864,353.76
1756.56,34.30000000000018,354.88
1717.0,73.0,356.0
1753.0181818181818,37.654545454545456,316.78181818181815
1789.0363636363636,2.309090909090912,277.56363636363636
1825.0545454545454,-33.03636363636363,238.34545454545454
1861.0727272727272,-68.38181818181818,199.12727272727273
1897.090909090909,-103.72727272727272,159.9090909090909
1933.1090909090908,-139.07272727272726,120.69090909090909
1969.1272727272726,-174.4181818181818,81.4727272727273
2005.1454545454544,-209.76363636363635,42.25454545454545
2041.1636363636362,-245.10909090909092,3.0363636363636033
2077.181818181818,-280.45454545454544,-36.18181818181819
2113.2,-315.79999999999995,-75.39999999999998
2149.2181818181816,-351.1454545454545,-114.61818181818182
2185.2363636363634,-386.4909090909091,-153.83636363636367
2221.254545454545,-421.8363636363636,-193.0545454545454
2257.272727272727,-457.18181818181813,-232.27272727272725
2293.290909090909,-492.5272727272727,-271.4909090909091
2329.3090909090906,-527.8727272727273,-310.70909090909095
2365.3272727272724,-563.2181818181818,-349.9272727272728
2401.3454545454542,-598.5636363636363,-389.1454545454545
2437.363636363636,-633.9090909090909,-428.3636363636364
2473.3818181818183,-669.2545454545455,-467.5818181818182
2509.4,-704.5999999999999,-506.79999999999995
2545.418181818182,-739.9454545454545,-546.0181818181818
2581.4363636363637,-775.290909090909,-585.2363636363636
2617.4545454545455,-810.6363636363636,-624.4545454545455
2653.4727272727273,-845.9818181818182,-663.6727272727273
2689.490909090909,-881.3272727272727,-702.8909090909092
2725.509090909091,-916.6727272727272,-742.1090909090908
2761.5272727272727,-952.0181818181818,-781.3272727272727
2797.5454545454545,-987.3636363636363,-820.5454545454545
2833.5636363636363,-1022.709090909091,-859.7636363636364
2869.581818181818,-1058.0545454545454,-898.9818181818182
2905.6,-1093.3999999999999,-938.2
2941.6181818181817,-1128.7454545454545,-977.4181818181819
2977.6363636363635,-1164.090909090909,-1016.6363636363637
3013.6545454545453,-1199.4363636363637,-1055.8545454545456
3049.672727272727,-1234.7818181818182,-1095.0727272727272
3085.690909090909,-1270.1272727272726,-1134.290909090909
3121.7090909090907,-1305.4727272727273,-1173.509090909091
3157.7272727272725,-1340.8181818181818,-1212.7272727272727
3193.745454545455,-1376.1636363636362,-1251.9454545454546
3229.7636363636366,-1411.509090909091,-1291.1636363636364
3265.7818181818184,-1446.8545454545454,-1330.3818181818183
3301.8,-1482.1999999999998,-1369.6
3337.818181818182,-1517.5454545454545,-1408.8181818181818
3373.836363636364,-1552.890909090909,-1448.0363636363636
3409.8545454545456,-1588.2363636363636,-1487.2545454545455
3445.8727272727274,-1623.581818181818,-1526.4727272727273
3481.890909090909,-1658.9272727272726,-1565.6909090909091
3517.909090909091,-1694.2727272727273,-1604.909090909091
3553.927272727273,-1729.6181818181817,-1644.1272727272728
3589.9454545454546,-1764.9636363636364,-1683.3454545454547
3625.9636363636364,-1800.3090909090909,-1722.5636363636363
3661.981818181818,-1835.6545454545453,-1761.7818181818184
3698.0,-1871.0,-1801.0
3702.2916666666665,-1831.8541666666667,-1801.75
3706.5833333333335,-1792.7083333333333,-1802.5
3710.875,-1753.5625,-1803.25
3715.1666666666665,-1714.4166666666667,-1804.0
3719.4583333333335,-1675.2708333333333,-1804.75
3723.75,-1636.125,-1805.5
3728.0416666666665,-1596.9791666666665,-1806.25
3732.3333333333335,-1557.8333333333333,-1807.0
3736.625,-1518.6875,-1807.75
3740.9166666666665,-1479.5416666666665,-1808.5
3745.2083333333335,-1440.3958333333333,-1809.25
3749.5,-1401.25,-1810.0
3753.7916666666665,-1362.1041666666665,-1810.75
3758.0833333333335,-1322.9583333333333,-1811.5
3762.375,-1283.8125,-1812.25
3766.6666666666665,-1244.6666666666665,-1813.0
3770.9583333333335,-1205.5208333333333,-1813.75
3775.25,-1166.375,-1814.5
3779.5416666666665,-1127.2291666666665,-1815.25
3783.8333333333335,-1088.0833333333333,-1816.0
3788.125,-1048.9375,-1816.75
3792.4166666666665,-1009.7916666666666,-1817.5
3796.7083333333335,-970.6458333333333,-1818.25
3801.0,-931.5,-1819.0
3805.2916666666665,-892.3541666666666,-1819.75
3809.5833333333335,-853.2083333333333,-1820.5
3813.875,-814.0625,-1821.25
3818.1666666666665,-774.9166666666665,-1822.0
3822.4583333333335,-735.7708333333333,-1822.75
3826.75,-696.625,-1823.5
3831.0416666666665,-657.4791666666665,-1824.25
3835.3333333333335,-618.3333333333333,-1825.0
3839.625,-579.1875,-1825.75
3843.9166666666665,-540.0416666666665,-1826.5
3848.2083333333335,-500.89583333333326,-1827.25
3852.5,-461.75,-1828.0
3856.7916666666665,-422.6041666666665,-1828.75
3861.0833333333335,-383.45833333333326,-1829.5
3865.375,-344.3125,-1830.25
3869.6666666666665,-305.1666666666665,-1831.0
3873.9583333333335,-266.02083333333326,-1831.75
3878.25,-226.875,-1832.5
3882.5416666666665,-187.72916666666652,-1833.25
3886.8333333333335,-148.58333333333326,-1834.0
3891.125,-109.4375,-1834.75
3895.4166666666665,-70.29166666666652,-1835.5
3899.7083333333335,-31.145833333333258,-1836.25
3904.0,8.0,-1837.0
3898.9791666666665,-31.041666666666664,-1793.3333333333333
3893.9583333333335,-70.08333333333333,-1749.6666666666667
3888.9375,-109.125,-1706.0
3883.9166666666665,-148.16666666666666,-1662.3333333333333
3878.8958333333335,-187.20833333333331,-1618.6666666666667
3873.875,-226.25,-1575.0
3868.8541666666665,-265.29166666666663,-1531.3333333333335
3863.8333333333335,-304.3333333333333,-1487.6666666666667
3858.8125,-343.375,-1444.0
3853.7916666666665,-382.41666666666663,-1400.3333333333335
3848.7708333333335,-421.4583333333333,-1356.6666666666667
3843.75,-460.5,-1313.0
3838.7291666666665,-499.54166666666663,-1269.3333333333335
3833.7083333333335,-538.5833333333333,-1225.6666666666667
3828.6875,-577.625,-1182.0
3823.6666666666665,-616.6666666666666,-1138.3333333333335
3818.6458333333335,-655.7083333333333,-1094.6666666666667
3813.625,-694.75,-1051.0
3808.6041666666665,-733.7916666666666,-1007.3333333333334
3803.5833333333335,-772.8333333333333,-963.6666666666667
3798.5625,-811.875,-920.0
3793.5416666666665,-850.9166666666666,-876.3333333333334
3788.5208333333335,-889.9583333333333,-832.6666666666667
3783.5,-929.0,-789.0
3778.4791666666665,-968.0416666666666,-745.3333333333335
3773.4583333333335,-1007.0833333333333,-701.6666666666667
3768.4375,-1046.125,-658.0
3763.4166666666665,-1085.1666666666665,-614.3333333333335
3758.3958333333335,-1124.2083333333333,-570.6666666666667
3753.375,-1163.25,-527.0
3748.3541666666665,-1202.2916666666665,-483.3333333333335
3743.3333333333335,-1241.3333333333333,-439.66666666666674
3738.3125,-1280.375,-396.0
3733.2916666666665,-1319.4166666666665,-352.3333333333335
3728.2708333333335,-1358.4583333333333,-308.66666666666674
3723.25,-1397.5,-265.0
3718.2291666666665,-1436.5416666666665,-221.33333333333348
3713.2083333333335,-1475.5833333333333,-177.66666666666674
3708.1875,-1514.625,-134.0
3703.1666666666665,-1553.6666666666665,-90.33333333333348
3698.1458333333335,-1592.7083333333333,-46.66666666666674
3693.125,-1631.75,-3.0
3688.1041666666665,-1670.7916666666665,40.666666666666515
3683.0833333333335,-1709.8333333333333,84.33333333333326
3678.0625,-1748.875,128.0
3673.0416666666665,-1787.9166666666665,171.66666666666652
3668.0208333333335,-1826.9583333333333,215.33333333333303
3663.0,-1866.0,259.0
3621.7916666666665,-1825.0416666666667,260.3541666666667
3580.5833333333335,-1784.0833333333333,261.7083333333333
3539.375,-1743.125,263.0625
3498.1666666666665,-1702.1666666666667,264.4166666666667
3456.9583333333335,-1661.2083333333333,265.7708333333333
3415.75,-1620.25,267.125
3374.5416666666665,-1579.2916666666665,268.4791666666667
3333.3333333333335,-1538.3333333333333,269.8333333333333
3292.125,-1497.375,271.1875
3250.9166666666665,-1456.4166666666665,272.5416666666667
3209.7083333333335,-1415.4583333333333,273.8958333333333
3168.5,-1374.5,275.25
3127.2916666666665,-1333.5416666666665,276.6041666666667
3086.083333333333,-1292.5833333333333,277.9583333333333
3044.875,-1251.625,279.3125
3003.6666666666665,-1210.6666666666665,280.6666666666667
2962.458333333333,-1169.7083333333333,282.0208333333333
2921.25,-1128.75,283.375
2880.0416666666665,-1087.7916666666665,284.7291666666667
2838.833333333333,-1046.8333333333333,286.0833333333333
2797.625,-1005.875,287.4375
2756.4166666666665,-964.9166666666666,288.7916666666667
2715.208333333333,-923.9583333333333,290.1458333333333
2674.0,-883.0,291.5
2632.7916666666665,-842.0416666666666,292.8541666666667
2591.583333333333,-801.0833333333333,294.2083333333333
2550.375,-760.125,295.5625
2509.1666666666665,-719.1666666666665,296.9166666666667
2467.958333333333,-678.2083333333333,298.2708333333333
2426.75,-637.25,299.625
2385.5416666666665,-596.2916666666665,300.9791666666667
2344.333333333333,-555.3333333333333,302.3333333333333
2303.125,-514.375,303.6875
2261.9166666666665,-473.4166666666665,305.0416666666667
2220.708333333333,-432.45833333333326,306.3958333333333
2179.5,-391.5,307.75
2138.2916666666665,-350.5416666666665,309.1041666666667
2097.083333333333,-309.58333333333326,310.4583333333333
2055.875,-268.625,311.8125
2014.6666666666665,-227.66666666666652,313.1666666666667
1973.4583333333333,-186.70833333333326,314.5208333333333
1932.25,-145.75,315.875
1891.0416666666665,-104.79166666666652,317.2291666666667
1849.8333333333333,-63.83333333333326,318.5833333333333
1808.625,-22.875,319.9375
1767.4166666666665,18.083333333333485,321.2916666666667
1726.2083333333333,59.04166666666674,322.6458333333333
1685.0,100.0,324.0
1685.0185185185185,63.148148148148145,324.4074074074074
1685.037037037037,26.29629629629629,324.81481481481484
1685.0555555555557,-10.555555555555571,325.22222222222223
1685.0740740740741,-47.40740740740742,325.6296296296296
1685.0925925925926,-84.25925925925927,326.037037037037
1685.111111111111,-121.11111111111114,326.44444444444446
1685.1296296296296,-157.962962962963,326.85185185185185
1685.148148148148,-194.81481481481484,327.25925925925924
1685.1666666666667,-231.66666666666669,327.6666666666667
1685.1851851851852,-268.51851851851853,328.0740740740741
1685.2037037037037,-305.3703703703704,328.48148148148147
1685.2222222222222,-342.2222222222223,328.8888888888889
1685.2407407407406,-379.07407407407413,329.2962962962963
1685.2592592592594,-415.925925925926,329.7037037037037
1685.2777777777778,-452.7777777777778,330.1111111111111
1685.2962962962963,-489.6296296296297,330.51851851851853
1685.3148148148148,-526.4814814814815,330.9259259259259
1685.3333333333333,-563.3333333333334,331.3333333333333
1685.351851851852,-600.1851851851852,331.74074074074076
1685.3703703703704,-637.0370370370371,332.14814814814815
1685.388888888889,-673.8888888888889,332.55555555555554
1685.4074074074074,-710.7407407407408,332.96296296296293
1685.4259259259259,-747.5925925925926,333.3703703703704
1685.4444444444443,-784.4444444444446,333.77777777777777
1685.462962962963,-821.2962962962964,334.18518518518516
1685.4814814814815,-858.1481481481483,334.5925925925926
1685.5,-895.0000000000001,335.0
1685.5185185185185,-931.851851851852,335.4074074074074
1685.537037037037,-968.7037037037037,335.81481481481484
1685.5555555555557,-1005.5555555555557,336.22222222222223
1685.5740740740741,-1042.4074074074074,336.6296296296296
1685.5925925925926,-1079.2592592592594,337.037037037037
1685.611111111111,-1116.1111111111113,337.44444444444446
1685.6296296296296,-1152.962962962963,337.85185185185185
1685.648148148148,-1189.814814814815,338.25925925925924
1685.6666666666667,-1226.6666666666667,338.6666666666667
1685.6851851851852,-1263.5185185185187,339.0740740740741
1685.7037037037037,-1300.3703703703704,339.48148148148147
1685.7222222222222,-1337.2222222222224,339.8888888888889
1685.7407407407406,-1374.0740740740741,340.2962962962963
1685.7592592592594,-1410.925925925926,340.7037037037037
1685.7777777777778,-1447.7777777777778,341.1111111111111
1685.7962962962963,-1484.6296296296298,341.51851851851853
1685.8148148148148,-1521.4814814814815,341.9259259259259
1685.8333333333333,-1558.3333333333335,342.3333333333333
1685.851851851852,-1595.1851851851852,342.74074074074076
1685.8703703703704,-1632.0370370370372,343.14814814814815
1685.888888888889,-1668.8888888888891,343.55555555555554
1685.9074074074074,-1705.7407407407409,343.96296296296293
1685.9259259259259,-1742.5925925925928,344.3703703703704
1685.9444444444443,-1779.4444444444446,344.77777777777777
1685.962962962963,-1816.2962962962965,345.18518518518516
1685.9814814814815,-1853.1481481481483,345.5925925925926
1686.0,-1890.0,346.0
1686.6122448979593,-1890.5102040816328,338.9591836734694
1687.2244897959183,-1891.0204081632653,331.9183673469388
1687.8367346938776,-1891.530612244898,324.8775510204082
1688.4489795918366,-1892.0408163265306,317.83673469387753
1689.061224489796,-1892.5510204081634,310.7959183673469
1689.6734693877552,-1893.061224489796,303.7551020408163
1690.2857142857142,-1893.5714285714287,296.7142857142857
1690.8979591836735,-1894.0816326530612,289.6734693877551
1691.5102040816328,-1894.591836734694,282.6326530612245
1692.1224489795918,-1895.1020408163265,275.59183673469386
1692.734693877551,-1895.6122448979593,268.55102040816325
1693.3469387755101,-1896.1224489795918,261.51020408163265
1693.9591836734694,-1896.6326530612246,254.46938775510205
1694.5714285714287,-1897.142857142857,247.42857142857144
1695.1836734693877,-1897.6530612244899,240.38775510204084
1695.795918367347,-1898.1632653061224,233.3469387755102
1696.408163265306,-1898.6734693877552,226.30612244897958
1697.0204081632653,-1899.1836734693877,219.26530612244898
1697.6326530612246,-1899.6938775510205,212.22448979591837
1698.2448979591836,-1900.204081632653,205.18367346938777
1698.857142857143,-1900.7142857142858,198.14285714285714
1699.469387755102,-1901.2244897959183,191.10204081632654
1700.0816326530612,-1901.734693877551,184.06122448979593
1700.6938775510205,-1902.2448979591836,177.0204081632653
1701.3061224489795,-1902.7551020408164,169.9795918367347
1701.9183673469388,-1903.265306122449,162.9387755102041
1702.530612244898,-1903.7755102040817,155.8979591836735
1703.142857142857,-1904.2857142857142,148.85714285714286
1703.7551020408164,-1904.795918367347,141.81632653061226
1704.3673469387754,-1905.3061224489795,134.77551020408166
1704.9795918367347,-1905.8163265306123,127.73469387755102
1705.591836734694,-1906.3265306122448,120.69387755102042
1706.204081632653,-1906.8367346938776,113.65306122448982
1706.8163265306123,-1907.3469387755101,106.61224489795919
1707.4285714285713,-1907.857142857143,99.57142857142858
1708.0408163265306,-1908.3673469387754,92.53061224489798
1708.6530612244899,-1908.8775510204082,85.48979591836735
1709.265306122449,-1909.3877551020407,78.44897959183675
1709.8775510204082,-1909.8979591836735,71.40816326530614
1710.4897959183672,-1910.408163265306,64.36734693877554
1711.1020408163265,-1910.9183673469388,57.32653061224494
1711.7142857142858,-1911.4285714285713,50.28571428571428
1712.3265306122448,-1911.938775510204,43.244897959183675
1712.938775510204,-1912.4489795918366,36.20408163265307
1713.5510204081634,-1912.9591836734694,29.16326530612247
1714.1632653061224,-1913.469387755102,22.122448979591866
1714.7755102040817,-1913.9795918367347,15.081632653061263
1715.3877551020407,-1914.4897959183672,8.040816326530603
1716.0,-1915.0,1.0
1758.1914893617022,-1914.531914893617,8.361702127659575
1800.3829787234042,-1914.063829787234,15.72340425531915
1842.5744680851064,-1913.595744680851,23.085106382978722
1884.7659574468084,-1913.127659574468,30.4468085106383
1926.9574468085107,-1912.659574468085,37.808510638297875
1969.1489361702127,-1912.1914893617022,45.170212765957444
2011.340425531915,-1911.723404255319,52.53191489361702
2053.531914893617,-1911.2553191489362,59.8936170212766
2095.723404255319,-1910.787234042553,67.25531914893617
2137.9148936170213,-1910.3191489361702,74.61702127659575
2180.1063829787236,-1909.8510638297873,81.97872340425532
2222.2978723404253,-1909.3829787234042,89.34042553191489
2264.4893617021276,-1908.9148936170213,96.70212765957447
2306.68085106383,-1908.4468085106382,104.06382978723404
2348.872340425532,-1907.9787234042553,111.42553191489363
2391.0638297872338,-1907.5106382978724,118.7872340425532
2433.255319148936,-1907.0425531914893,126.14893617021276
2475.446808510638,-1906.5744680851064,133.51063829787233
2517.6382978723404,-1906.1063829787233,140.87234042553192
2559.8297872340427,-1905.6382978723404,148.2340425531915
2602.021276595745,-1905.1702127659576,155.59574468085106
2644.2127659574467,-1904.7021276595744,162.95744680851064
2686.404255319149,-1904.2340425531916,170.31914893617022
2728.595744680851,-1903.7659574468084,177.68085106382978
2770.787234042553,-1903.2978723404256,185.04255319148936
2812.978723404255,-1902.8297872340424,192.40425531914894
2855.1702127659573,-1902.3617021276596,199.76595744680853
2897.3617021276596,-1901.8936170212767,207.12765957446808
2939.553191489362,-1901.4255319148936,214.48936170212767
2981.744680851064,-1900.9574468085107,221.85106382978725
3023.936170212766,-1900.4893617021276,229.2127659574468
3066.127659574468,-1900.0212765957447,236.5744680851064
3108.31914893617,-1899.5531914893618,243.93617021276597
3150.510638297872,-1899.0851063829787,251.29787234042553
3192.702127659574,-1898.6170212765958,258.6595744680851
3234.8936170212764,-1898.1489361702127,266.02127659574467
3277.0851063829787,-1897.6808510638298,273.3829787234043
3319.276595744681,-1897.212765957447,280.74468085106383
3361.468085106383,-1896.7446808510638,288.1063829787234
3403.659574468085,-1896.276595744681,295.468085106383
3445.851063829787,-1895.8085106382978,302.82978723404256
3488.0425531914893,-1895.340425531915,310.1914893617021
3530.234042553191,-1894.872340425532,317.5531914893617
3572.4255319148933,-1894.404255319149,324.9148936170213
3614.6170212765956,-1893.936170212766,332.27659574468083
3656.808510638298,-1893.468085106383,339.63829787234044
3699.0,-1893.0,347.0
3698.9166666666665,-1892.0333333333333,346.31666666666666
3698.8333333333335,-1891.0666666666666,345.6333333333333
3698.75,-1890.1,344.95
3698.6666666666665,-1889.1333333333334,344.26666666666665
3698.5833333333335,-1888.1666666666667,343.5833333333333
3698.5,-1887.2,342.9
3698.4166666666665,-1886.2333333333333,342.21666666666664
3698.3333333333335,-1885.2666666666667,341.53333333333336
3698.25,-1884.3,340.85
3698.1666666666665,-1883.3333333333333,340.1666666666667
3698.0833333333335,-1882.3666666666666,339.48333333333335
3698.0,-1881.4,338.8
3697.9166666666665,-1880.4333333333334,338.1166666666667
3697.8333333333335,-1879.4666666666667,337.43333333333334
3697.75,-1878.5,336.75
3697.6666666666665,-1877.5333333333333,336.06666666666666
3697.5833333333335,-1876.5666666666666,335.3833333333333
3697.5,-1875.6,334.7
3697.4166666666665,-1874.6333333333334,334.01666666666665
3697.3333333333335,-1873.6666666666667,333.3333333333333
3697.25,-1872.7,332.65
3697.1666666666665,-1871.7333333333333,331.96666666666664
3697.0833333333335,-1870.7666666666667,331.28333333333336
3697.0,-1869.8,330.6
3696.9166666666665,-1868.8333333333333,329.9166666666667
3696.8333333333335,-1867.8666666666666,329.23333333333335
3696.75,-1866.9,328.55
3696.6666666666665,-1865.9333333333334,327.8666666666667
3696.5833333333335,-1864.9666666666667,327.18333333333334
3696.5,-1864.0,326.5
3696.4166666666665,-1863.0333333333333,325.81666666666666
3696.3333333333335,-1862.0666666666666,325.1333333333333
3696.25,-1861.1,324.45
3696.1666666666665,-1860.1333333333334,323.76666666666665
3696.0833333333335,-1859.1666666666667,323.0833333333333
3696.0,-1858.2,322.4
3695.9166666666665,-1857.2333333333333,321.71666666666664
3695.8333333333335,-1856.2666666666667,321.0333333333333
3695.75,-1855.3,320.35
3695.6666666666665,-1854.3333333333333,319.6666666666667
3695.5833333333335,-1853.3666666666666,318.98333333333335
3695.5,-1852.4,318.3
3695.4166666666665,-1851.4333333333334,317.6166666666667
3695.3333333333335,-1850.4666666666667,316.93333333333334
3695.25,-1849.5,316.25
3695.1666666666665,-1848.5333333333333,315.56666666666666
3695.0833333333335,-1847.5666666666666,314.8833333333333
3695.0,-1846.6,314.2
3694.9166666666665,-1845.6333333333334,313.51666666666665
3694.8333333333335,-1844.6666666666667,312.8333333333333
3694.75,-1843.7,312.15
3694.6666666666665,-1842.7333333333333,311.4666666666667
3694.5833333333335,-1841.7666666666667,310.7833333333333
3694.5,-1840.8,310.1
3694.4166666666665,-1839.8333333333333,309.4166666666667
3694.3333333333335,-1838.8666666666666,308.73333333333335
3694.25,-1837.9,308.05
3694.1666666666665,-1836.9333333333334,307.3666666666667
3694.0833333333335,-1835.9666666666667,306.68333333333334
3694.0,-1835.0,306.0
3694.095238095238,-1836.0238095238096,306.04761904761904
3694.190476190476,-1837.047619047619,306.0952380952381
3694.285714285714,-1838.0714285714287,306.14285714285717
3694.3809523809523,-1839.095238095238,306.1904761904762
3694.4761904761904,-1840.1190476190477,306.23809523809524
3694.5714285714284,-1841.142857142857,306.2857142857143
3694.6666666666665,-1842.1666666666667,306.3333333333333
3694.7619047619046,-1843.1904761904761,306.3809523809524
3694.8571428571427,-1844.2142857142858,306.42857142857144
3694.9523809523807,-1845.2380952380952,306.4761904761905
3695.0476190476193,-1846.2619047619048,306.5238095238095
3695.1428571428573,-1847.2857142857142,306.57142857142856
3695.2380952380954,-1848.3095238095239,306.6190476190476
3695.3333333333335,-1849.3333333333333,306.6666666666667
3695.4285714285716,-1850.357142857143,306.7142857142857
3695.5238095238096,-1851.3809523809523,306.76190476190476
3695.6190476190477,-1852.404761904762,306.8095238095238
3695.714285714286,-1853.4285714285713,306.85714285714283
3695.809523809524,-1854.452380952381,306.9047619047619
3695.904761904762,-1855.4761904761904,306.95238095238096
3696.0,-1856.5,307.0
3696.095238095238,-1857.5238095238096,307.04761904761904
3696.190476190476,-1858.547619047619,307.0952380952381
3696.285714285714,-1859.5714285714287,307.14285714285717
3696.3809523809523,-1860.595238095238,307.1904761904762
3696.4761904761904,-1861.6190476190477,307.23809523809524
3696.5714285714284,-1862.642857142857,307.2857142857143
3696.6666666666665,-1863.6666666666667,307.3333333333333
3696.7619047619046,-1864.6904761904761,307.3809523809524
3696.8571428571427,-1865.7142857142858,307.42857142857144
3696.9523809523807,-1866.7380952380952,307.4761904761905
3697.0476190476193,-1867.7619047619048,307.5238095238095
3697.1428571428573,-1868.7857142857142,307.57142857142856
3697.2380952380954,-1869.8095238095239,307.6190476190476
3697.3333333333335,-1870.8333333333333,307.6666666666667
3697.4285714285716,-1871.857142857143,307.7142857142857
3697.5238095238096,-1872.8809523809523,307.76190476190476
3697.6190476190477,-1873.904761904762,307.8095238095238
3697.714285714286,-1874.9285714285713,307.85714285714283
3697.809523809524,-1875.952380952381,307.9047619047619
3697.904761904762,-1876.9761904761904,307.95238095238096
3698.0,-1878.0,308.0
3656.5833333333335,-1878.8333333333333,264.2083333333333
3615.1666666666665,-1879.6666666666667,220.41666666666669
3573.75,-1880.5,176.625
3532.3333333333335,-1881.3333333333333,132.83333333333334
3490.9166666666665,-1882.1666666666667,89.04166666666669
3449.5,-1883.0,45.25
3408.0833333333335,-1883.8333333333333,1.4583333333333712
3366.6666666666665,-1884.6666666666667,-42.333333333333314
3325.25,-1885.5,-86.125
3283.8333333333335,-1886.3333333333333,-129.91666666666663
3242.4166666666665,-1887.1666666666667,-173.70833333333331
3201.0,-1888.0,-217.5
3159.5833333333335,-1888.8333333333333,-261.29166666666663
3118.166666666667,-1889.6666666666667,-305.08333333333326
3076.75,-1890.5,-348.875
3035.3333333333335,-1891.3333333333333,-392.66666666666663
2993.916666666667,-1892.1666666666667,-436.45833333333326
2952.5,-1893.0,-480.25
2911.0833333333335,-1893.8333333333333,-524.0416666666666
2869.666666666667,-1894.6666666666667,-567.8333333333333
2828.25,-1895.5,-611.625
2786.8333333333335,-1896.3333333333333,-655.4166666666666
2745.416666666667,-1897.1666666666667,-699.2083333333333
2704.0,-1898.0,-743.0
2662.5833333333335,-1898.8333333333333,-786.7916666666665
2621.166666666667,-1899.6666666666667,-830.5833333333333
2579.75,-1900.5,-874.375
2538.3333333333335,-1901.3333333333333,-918.1666666666665
2496.916666666667,-1902.1666666666667,-961.9583333333333
2455.5,-1903.0,-1005.75
2414.0833333333335,-1903.8333333333333,-1049.5416666666665
2372.666666666667,-1904.6666666666667,-1093.3333333333333
2331.25,-1905.5,-1137.125
2289.8333333333335,-1906.3333333333333,-1180.9166666666665
2248.416666666667,-1907.1666666666667,-1224.7083333333333
2207.0,-1908.0,-1268.5
2165.5833333333335,-1908.8333333333333,-1312.2916666666665
2124.166666666667,-1909.6666666666667,-1356.0833333333333
2082.75,-1910.5,-1399.875
2041.3333333333335,-1911.3333333333333,-1443.6666666666665
1999.9166666666667,-1912.1666666666667,-1487.4583333333333
1958.5,-1913.0,-1531.25
1917.0833333333335,-1913.8333333333333,-1575.0416666666665
1875.6666666666667,-1914.6666666666667,-1618.8333333333333
1834.25,-1915.5,-1662.625
1792.8333333333335,-1916.3333333333333,-1706.4166666666665
1751.4166666666667,-1917.1666666666667,-1750.208333333333
1710.0,-1918.0,-1794.0
1705.3090909090909,-1916.4363636363637,-1725.9454545454546
1700.6181818181817,-1914.8727272727272,-1657.8909090909092
1695.9272727272728,-1913.3090909090909,-1589.8363636363638
1691.2363636363636,-1911.7454545454545,-1521.7818181818182
1686.5454545454545,-1910.1818181818182,-1453.7272727272727
1681.8545454545454,-1908.6181818181817,-1385.6727272727273
1677.1636363636364,-1907.0545454545454,-1317.618181818182
1672.4727272727273,-1905.490909090909,-1249.5636363636363
1667.7818181818182,-1903.9272727272728,-1181.509090909091
1663.090909090909,-1902.3636363636363,-1113.4545454545455
1658.4,-1900.8,-1045.4
1653.709090909091,-1899.2363636363636,-977.3454545454547
1649.0181818181818,-1897.6727272727273,-909.2909090909092
1644.3272727272727,-1896.1090909090908,-841.2363636363638
1639.6363636363637,-1894.5454545454545,-773.1818181818182
1634.9454545454546,-1892.9818181818182,-705.1272727272728
1630.2545454545455,-1891.418181818182,-637.0727272727274
1625.5636363636363,-1889.8545454545454,-569.018181818182
1620.8727272727274,-1888.290909090909,-500.9636363636364
1616.1818181818182,-1886.7272727272727,-432.909090909091
1611.490909090909,-1885.1636363636364,-364.8545454545456
1606.8,-1883.6,-296.8000000000002
1602.1090909090908,-1882.0363636363636,-228.74545454545478
1597.418181818182,-1880.4727272727273,-160.69090909090937
1592.7272727272727,-1878.909090909091,-92.63636363636374
1588.0363636363636,-1877.3454545454545,-24.581818181818335
1583.3454545454545,-1875.7818181818182,43.47272727272707
1578.6545454545455,-1874.2181818181818,111.52727272727248
1573.9636363636364,-1872.6545454545455,179.58181818181788
1569.2727272727273,-1871.090909090909,247.6363636363635
1564.581818181818,-1869.5272727272727,315.6909090909089
1559.8909090909092,-1867.9636363636364,383.7454545454543
1555.2,-1866.4,451.7999999999997
1550.509090909091,-1864.8363636363636,519.8545454545451
1545.8181818181818,-1863.2727272727273,587.9090909090905
1541.1272727272728,-1861.709090909091,655.9636363636359
1536.4363636363637,-1860.1454545454546,724.0181818181813
1531.7454545454545,-1858.581818181818,792.0727272727272
1527.0545454545454,-1857.0181818181818,860.1272727272726
1522.3636363636365,-1855.4545454545455,928.181818181818
1517.6727272727273,-1853.8909090909092,996.2363636363634
1512.9818181818182,-1852.3272727272727,1064.2909090909088
1508.290909090909,-1850.7636363636364,1132.3454545454542
1503.6,-1849.2,1200.3999999999996
1498.909090909091,-1847.6363636363635,1268.454545454545
1494.2181818181818,-1846.0727272727272,1336.5090909090904
1489.5272727272727,-1844.509090909091,1404.5636363636359
1484.8363636363638,-1842.9454545454546,1472.6181818181813
1480.1454545454546,-1841.3818181818183,1540.6727272727271
1475.4545454545455,-1839.8181818181818,1608.7272727272725
1470.7636363636364,-1838.2545454545455,1676.781818181818
1466.0727272727272,-1836.6909090909091,1744.8363636363633
1461.3818181818183,-1835.1272727272726,1812.8909090909087
1456.6909090909091,-1833.5636363636363,1880.9454545454541
1452.0,-1832.0,1949.0
1499.0,-1832.212765957447,1913.5744680851064
1546.0,-1832.4255319148936,1878.1489361702127
1593.0,-1832.6382978723404,1842.723404255319
1640.0,-1832.8510638297873,1807.2978723404256
1687.0,-1833.063829787234,1771.872340425532
1734.0,-1833.276595744681,1736.4468085106382
1781.0,-1833.4893617021276,1701.0212765957447
1828.0,-1833.7021276595744,1665.595744680851
1875.0,-1833.9148936170213,1630.1702127659573
1922.0,-1834.127659574468,1594.7446808510638
1969.0,-1834.340425531915,1559.3191489361702
2016.0,-1834.5531914893618,1523.8936170212764
2063.0,-1834.7659574468084,1488.468085106383
2110.0,-1834.9787234042553,1453.0425531914893
2157.0,-1835.1914893617022,1417.6170212765958
2204.0,-1835.404255319149,1382.1914893617022
2251.0,-1835.6170212765958,1346.7659574468084
2298.0,-1835.8297872340424,1311.340425531915
2345.0,-1836.0425531914893,1275.9148936170213
2392.0,-1836.2553191489362,1240.4893617021276
2439.0,-1836.468085106383,1205.063829787234
2486.0,-1836.6808510638298,1169.6382978723404
2533.0,-1836.8936170212767,1134.2127659574467
2580.0,-1837.1063829787233,1098.787234042553
2627.0,-1837.3191489361702,1063.3617021276596
2674.0,-1837.531914893617,1027.9361702127658
2721.0,-1837.7446808510638,992.5106382978723
2768.0,-1837.9574468085107,957.0851063829787
2815.0,-1838.1702127659576,921.6595744680851
2862.0,-1838.3829787234042,886.2340425531916
2909.0,-1838.595744680851,850.8085106382978
2956.0,-1838.8085106382978,815.3829787234042
3003.0,-1839.0212765957447,779.9574468085107
3050.0,-1839.2340425531916,744.5319148936169
3097.0,-1839.4468085106382,709.1063829787233
3144.0,-1839.659574468085,673.6808510638298
3191.0,-1839.872340425532,638.2553191489362
3238.0,-1840.0851063829787,602.8297872340424
3285.0,-1840.2978723404256,567.4042553191489
3332.0,-1840.5106382978724,531.9787234042553
3379.0,-1840.723404255319,496.55319148936155
3426.0,-1840.936170212766,461.127659574468
3473.0,-1841.1489361702127,425.70212765957444
3520.0,-1841.3617021276596,390.2765957446809
3567.0,-1841.5744680851064,354.8510638297871
3614.0,-1841.787234042553,319.42553191489355
3661.0,-1842.0,284.0
3660.6458333333335,-1797.1041666666667,283.625
3660.2916666666665,-1752.2083333333333,283.25
3659.9375,-1707.3125,282.875
3659.5833333333335,-1662.4166666666667,282.5
3659.2291666666665,-1617.5208333333333,282.125
3658.875,-1572.625,281.75
3658.5208333333335,-1527.7291666666665,281.375
3658.1666666666665,-1482.8333333333333,281.0
3657.8125,-1437.9375,280.625
3657.4583333333335,-1393.0416666666665,280.25
3657.1041666666665,-1348.1458333333333,279.875
3656.75,-1303.25,279.5
3656.3958333333335,-1258.3541666666665,279.125
3656.0416666666665,-1213.4583333333333,278.75
3655.6875,-1168.5625,278.375
3655.3333333333335,-1123.6666666666665,278.0
3654.9791666666665,-1078.7708333333333,277.625
3654.625,-1033.875,277.25
3654.2708333333335,-988.9791666666666,276.875
3653.9166666666665,-944.0833333333333,276.5
3653.5625,-899.1875,276.125
3653.2083333333335,-854.2916666666666,275.75
3652.8541666666665,-809.3958333333333,275.375
3652.5,-764.5,275.0
3652.1458333333335,-719.6041666666665,274.625
3651.7916666666665,-674.7083333333333,274.25
3651.4375,-629.8125,273.875
3651.0833333333335,-584.9166666666665,273.5
3650.7291666666665,-540.0208333333333,273.125
3650.375,-495.125,272.75
3650.0208333333335,-450.2291666666665,272.375
3649.6666666666665,-405.33333333333326,272.0
3649.3125,-360.4375,271.625
3648.9583333333335,-315.5416666666665,271.25
3648.6041666666665,-270.64583333333326,270.875
3648.25,-225.75,270.5
3647.8958333333335,-180.85416666666652,270.125
3647.5416666666665,-135.95833333333326,269.75
3647.1875,-91.0625,269.375
3646.8333333333335,-46.166666666666515,269.0
3646.4791666666665,-1.2708333333332575,268.625
3646.125,43.625,268.25
3645.7708333333335,88.52083333333348,267.875
3645.4166666666665,133.41666666666674,267.5
3645.0625,178.3125,267.125
3644.7083333333335,223.20833333333348,266.75
3644.3541666666665,268.10416666666697,266.375
3644.0,313.0,266.0
3644.9242424242425,280.0909090909091,266.04545454545456
3645.848484848485,247.1818181818182,266.09090909090907
3646.7727272727275,214.27272727272728,266.1363636363636
3647.6969696969695,181.36363636363637,266.1818181818182
3648.621212121212,148.45454545454547,266.22727272727275
3649.5454545454545,115.54545454545456,266.27272727272725
3650.469696969697,82.63636363636365,266.3181818181818
3651.3939393939395,49.72727272727275,266.3636363636364
3652.318181818182,16.81818181818187,266.40909090909093
3653.242424242424,-16.090909090909065,266.45454545454544
3654.1666666666665,-49.0,266.5
3655.090909090909,-81.90909090909088,266.54545454545456
3656.0151515151515,-114.81818181818176,266.59090909090907
3656.939393939394,-147.7272727272727,266.6363636363636
3657.8636363636365,-180.63636363636363,266.6818181818182
3658.787878787879,-213.5454545454545,266.72727272727275
3659.712121212121,-246.45454545454538,266.77272727272725
3660.6363636363635,-279.36363636363626,266.8181818181818
3661.560606060606,-312.27272727272725,266.8636363636364
3662.4848484848485,-345.18181818181813,266.90909090909093
3663.409090909091,-378.090909090909,266.95454545454544
3664.3333333333335,-411.0,267.0
3665.257575757576,-443.9090909090909,267.04545454545456
3666.181818181818,-476.81818181818176,267.09090909090907
3667.1060606060605,-509.72727272727263,267.1363636363636
3668.030303030303,-542.6363636363635,267.1818181818182
3668.9545454545455,-575.5454545454545,267.22727272727275
3669.878787878788,-608.4545454545454,267.27272727272725
3670.8030303030305,-641.3636363636363,267.3181818181818
3671.7272727272725,-674.2727272727273,267.3636363636364
3672.651515151515,-707.1818181818181,267.40909090909093
3673.5757575757575,-740.090909090909,267.45454545454544
3674.5,-773.0,267.5
3675.4242424242425,-805.9090909090908,267.54545454545456
3676.348484848485,-838.8181818181818,267.59090909090907
3677.2727272727275,-871.7272727272725,267.6363636363636
3678.1969696969695,-904.6363636363635,267.6818181818182
3679.121212121212,-937.5454545454545,267.72727272727275
3680.0454545454545,-970.4545454545453,267.77272727272725
3680.969696969697,-1003.3636363636363,267.8181818181818
3681.8939393939395,-1036.2727272727273,267.8636363636364
3682.818181818182,-1069.181818181818,267.90909090909093
3683.742424242424,-1102.090909090909,267.95454545454544
3684.6666666666665,-1135.0,268.0
3685.590909090909,-1167.9090909090908,268.04545454545456
3686.5151515151515,-1200.8181818181818,268.09090909090907
3687.439393939394,-1233.7272727272725,268.1363636363636
3688.3636363636365,-1266.6363636363635,268.1818181818182
3689.287878787879,-1299.5454545454545,268.22727272727275
3690.212121212121,-1332.4545454545453,268.27272727272725
3691.1363636363635,-1365.3636363636363,268.3181818181818
3692.060606060606,-1398.272727272727,268.3636363636364
3692.9848484848485,-1431.181818181818,268.40909090909093
3693.909090909091,-1464.090909090909,268.45454545454544
3694.8333333333335,-1496.9999999999998,268.5
3695.757575757576,-1529.9090909090908,268.54545454545456
3696.681818181818,-1562.8181818181818,268.59090909090907
3697.6060606060605,-1595.7272727272725,268.6363636363636
3698.530303030303,-1628.6363636363635,268.6818181818182
3699.4545454545455,-1661.5454545454545,268.72727272727275
3700.378787878788,-1694.4545454545453,268.77272727272725
3701.3030303030305,-1727.3636363636363,268.8181818181818
3702.2272727272725,-1760.272727272727,268.8636363636364
3703.151515151515,-1793.181818181818,268.90909090909093
3704.0757575757575,-1826.090909090909,268.95454545454544
3705.0,-1859.0,269.0
3651.777777777778,-1805.111111111111,208.36111111111111
3598.5555555555557,-1751.2222222222222,147.72222222222223
3545.3333333333335,-1697.3333333333333,87.08333333333334
3492.1111111111113,-1643.4444444444443,26.444444444444457
3438.8888888888887,-1589.5555555555557,-34.19444444444446
3385.6666666666665,-1535.6666666666667,-94.83333333333331
3332.4444444444443,-1481.7777777777778,-155.47222222222217
3279.222222222222,-1427.888888888889,-216.1111111111111
3226.0,-1374.0,-276.75
3172.777777777778,-1320.111111111111,-337.3888888888889
3119.5555555555557,-1266.2222222222222,-398.0277777777777
3066.3333333333335,-1212.3333333333335,-458.66666666666663
3013.1111111111113,-1158.4444444444443,-519.3055555555555
2959.8888888888887,-1104.5555555555557,-579.9444444444443
2906.6666666666665,-1050.6666666666667,-640.5833333333333
2853.4444444444443,-996.7777777777778,-701.2222222222222
2800.222222222222,-942.8888888888889,-761.8611111111111
2747.0,-889.0,-822.5
2693.777777777778,-835.1111111111112,-883.1388888888889
2640.5555555555557,-781.2222222222222,-943.7777777777778
2587.333333333333,-727.3333333333335,-1004.4166666666665
2534.1111111111113,-673.4444444444446,-1065.0555555555554
2480.8888888888887,-619.5555555555557,-1125.6944444444443
2427.666666666667,-565.6666666666667,-1186.3333333333333
2374.4444444444443,-511.7777777777778,-1246.9722222222222
2321.222222222222,-457.8888888888889,-1307.611111111111
2268.0,-404.0,-1368.25
2214.777777777778,-350.1111111111113,-1428.8888888888887
2161.5555555555557,-296.2222222222224,-1489.5277777777776
2108.333333333333,-242.33333333333348,-1550.1666666666665
2055.1111111111113,-188.44444444444457,-1610.8055555555554
2001.888888888889,-134.55555555555566,-1671.4444444444443
1948.6666666666667,-80.66666666666674,-1732.0833333333333
1895.4444444444446,-26.77777777777783,-1792.7222222222222
1842.2222222222222,27.111111111111086,-1853.3611111111109
1789.0,81.0,-1914.0
1828.4375,41.104166666666664,-1867.25
1867.875,1.2083333333333286,-1820.5
1907.3125,-38.6875,-1773.75
1946.75,-78.58333333333334,-1727.0
1986.1875,-118.47916666666669,-1680.25
2025.625,-158.375,-1633.5
2065.0625,-198.27083333333337,-1586.75
2104.5,-238.16666666666669,-1540.0
2143.9375,-278.0625,-1493.25
2183.375,-317.95833333333337,-1446.5
2222.8125,-357.8541666666667,-1399.75
2262.25,-397.75,-1353.0
2301.6875,-437.64583333333337,-1306.25
2341.125,-477.54166666666674,-1259.5
2380.5625,-517.4375,-1212.75
2420.0,-557.3333333333334,-1166.0
2459.4375,-597.2291666666667,-1119.25
2498.875,-637.125,-1072.5
2538.3125,-677.0208333333334,-1025.75
2577.75,-716.9166666666667,-979.0
2617.1875,-756.8125,-932.25
2656.625,-796.7083333333334,-885.5
2696.0625,-836.6041666666667,-838.75
2735.5,-876.5,-792.0
2774.9375,-916.3958333333334,-745.25
2814.375,-956.2916666666667,-698.5
2853.8125,-996.1875,-651.75
2893.25,-1036.0833333333335,-605.0
2932.6875,-1075.9791666666667,-558.25
2972.125,-1115.875,-511.5
3011.5625,-1155.7708333333335,-464.75
3051.0,-1195.6666666666667,-418.0
3090.4375,-1235.5625,-371.25
3129.875,-1275.4583333333335,-324.5
3169.3125,-1315.3541666666667,-277.75
3208.75,-1355.25,-231.0
3248.1875,-1395.1458333333335,-184.25
3287.625,-1435.0416666666667,-137.5
3327.0625,-1474.9375,-90.75
3366.5,-1514.8333333333335,-44.0
3405.9375,-1554.7291666666667,2.75
3445.375,-1594.625,49.5
3484.8125,-1634.5208333333335,96.25
3524.25,-1674.4166666666667,143.0
3563.6875,-1714.3125,189.75
3603.125,-1754.2083333333335,236.5
3642.5625,-1794.1041666666667,283.25
3682.0,-1834.0,330.0
3682.4814814814813,-1835.1296296296296,330.2962962962963
3682.962962962963,-1836.2592592592594,330.5925925925926
3683.4444444444443,-1837.388888888889,330.8888888888889
3683.925925925926,-1838.5185185185185,331.18518518518516
3684.4074074074074,-1839.648148148148,331.48148148148147
3684.8888888888887,-1840.7777777777778,331.77777777777777
3685.3703703703704,-1841.9074074074074,332.0740740740741
3685.8518518518517,-1843.037037037037,332.3703703703704
3686.3333333333335,-1844.1666666666667,332.6666666666667
3686.814814814815,-1845.2962962962963,332.962962962963
3687.296296296296,-1846.4259259259259,333.25925925925924
3687.777777777778,-1847.5555555555557,333.55555555555554
3688.259259259259,-1848.6851851851852,333.85185185185185
3688.740740740741,-1849.8148148148148,334.14814814814815
3689.222222222222,-1850.9444444444443,334.44444444444446
3689.703703703704,-1852.0740740740741,334.74074074074076
3690.185185185185,-1853.2037037037037,335.037037037037
3690.6666666666665,-1854.3333333333333,335.3333333333333
3691.1481481481483,-1855.462962962963,335.6296296296296
3691.6296296296296,-1856.5925925925926,335.9259259259259
3692.1111111111113,-1857.7222222222222,336.22222222222223
3692.5925925925926,-1858.851851851852,336.51851851851853
3693.074074074074,-1859.9814814814815,336.81481481481484
3693.5555555555557,-1861.111111111111,337.1111111111111
3694.037037037037,-1862.2407407407406,337.4074074074074
3694.5185185185187,-1863.3703703703704,337.7037037037037
3695.0,-1864.5,338.0
3695.4814814814813,-1865.6296296296296,338.2962962962963
3695.962962962963,-1866.7592592592594,338.5925925925926
3696.4444444444443,-1867.888888888889,338.8888888888889
3696.925925925926,-1869.0185185185185,339.18518518518516
3697.4074074074074,-1870.148148148148,339.48148148148147
3697.8888888888887,-1871.2777777777778,339.77777777777777
3698.3703703703704,-1872.4074074074074,340.0740740740741
3698.8518518518517,-1873.537037037037,340.3703703703704
3699.3333333333335,-1874.6666666666667,340.6666666666667
3699.814814814815,-1875.7962962962963,340.96296296296293
3700.296296296296,-1876.9259259259259,341.25925925925924
3700.777777777778,-1878.0555555555557,341.55555555555554
3701.259259259259,-1879.1851851851852,341.85185185185185
3701.740740740741,-1880.3148148148148,342.14814814814815
3702.222222222222,-1881.4444444444443,342.44444444444446
3702.703703703704,-1882.5740740740741,342.74074074074076
3703.185185185185,-1883.7037037037037,343.037037037037
3703.6666666666665,-1884.8333333333333,343.3333333333333
3704.1481481481483,-1885.962962962963,343.6296296296296
3704.6296296296296,-1887.0925925925926,343.9259259259259
3705.1111111111113,-1888.2222222222222,344.22222222222223
3705.5925925925926,-1889.3518518518517,344.51851851851853
3706.074074074074,-1890.4814814814815,344.81481481481484
3706.5555555555557,-1891.611111111111,345.1111111111111
3707.037037037037,-1892.7407407407406,345.4074074074074
3707.5185185185187,-1893.8703703703704,345.7037037037037
3708.0,-1895.0,346.0
3707.5416666666665,-1893.7916666666667,344.4583333333333
3707.0833333333335,-1892.5833333333333,342.9166666666667
3706.625,-1891.375,341.375
3706.1666666666665,-1890.1666666666667,339.8333333333333
3705.7083333333335,-1888.9583333333333,338.2916666666667
3705.25,-1887.75,336.75
3704.7916666666665,-1886.5416666666667,335.2083333333333
3704.3333333333335,-1885.3333333333333,333.6666666666667
3703.875,-1884.125,332.125
3703.4166666666665,-1882.9166666666667,330.5833333333333
3702.9583333333335,-1881.7083333333333,329.0416666666667
3702.5,-1880.5,327.5
3702.0416666666665,-1879.2916666666667,325.9583333333333
3701.5833333333335,-1878.0833333333333,324.4166666666667
3701.125,-1876.875,322.875
3700.6666666666665,-1875.6666666666667,321.3333333333333
3700.2083333333335,-1874.4583333333333,319.7916666666667
3699.75,-1873.25,318.25
3699.2916666666665,-1872.0416666666667,316.7083333333333
3698.8333333333335,-1870.8333333333333,315.1666666666667
3698.375,-1869.625,313.625
3697.9166666666665,-1868.4166666666667,312.0833333333333
3697.4583333333335,-1867.2083333333333,310.5416666666667
3697.0,-1866.0,309.0
3696.5416666666665,-1864.7916666666667,307.4583333333333
3696.0833333333335,-1863.5833333333333,305.9166666666667
3695.625,-1862.375,304.375
3695.1666666666665,-1861.1666666666667,302.8333333333333
3694.7083333333335,-1859.9583333333333,301.2916666666667
3694.25,-1858.75,299.75
3693.7916666666665,-1857.5416666666667,298.2083333333333
3693.3333333333335,-1856.3333333333333,296.6666666666667
3692.875,-1855.125,295.125
3692.4166666666665,-1853.9166666666667,293.5833333333333
3691.9583333333335,-1852.7083333333333,292.0416666666667
3691.5,-1851.5,290.5
3691.0416666666665,-1850.2916666666667,288.9583333333333
3690.5833333333335,-1849.0833333333333,287.4166666666667
3690.125,-1847.875,285.875
3689.6666666666665,-1846.6666666666667,284.3333333333333
3689.2083333333335,-1845.4583333333333,282.7916666666667
3688.75,-1844.25,281.25
3688.2916666666665,-1843.0416666666667,279.7083333333333
3687.8333333333335,-1841.8333333333333,278.16666666666663
3687.375,-1840.625,276.625
3686.9166666666665,-1839.4166666666667,275.0833333333333
3686.4583333333335,-1838.2083333333333,273.54166666666663
3686.0,-1837.0,272.0
3686.3958333333335,-1837.7083333333333,272.2291666666667
3686.7916666666665,-1838.4166666666667,272.4583333333333
3687.1875,-1839.125,272.6875
3687.5833333333335,-1839.8333333333333,272.9166666666667
3687.9791666666665,-1840.5416666666667,273.1458333333333
3688.375,-1841.25,273.375
3688.7708333333335,-1841.9583333333333,273.6041666666667
3689.1666666666665,-1842.6666666666667,273.8333333333333
3689.5625,-1843.375,274.0625
3689.9583333333335,-1844.0833333333333,274.2916666666667
3690.3541666666665,-1844.7916666666667,274.5208333333333
3690.75,-1845.5,274.75
3691.1458333333335,-1846.2083333333333,274.9791666666667
3691.5416666666665,-1846.9166666666667,275.2083333333333
3691.9375,-1847.625,275.4375
3692.3333333333335,-1848.3333333333333,275.6666666666667
3692.7291666666665,-1849.0416666666667,275.8958333333333
3693.125,-1849.75,276.125
3693.5208333333335,-1850.4583333333333,276.3541666666667
3693.9166666666665,-1851.1666666666667,276.5833333333333
3694.3125,-1851.875,276.8125
3694.7083333333335,-1852.5833333333333,277.0416666666667
3695.1041666666665,-1853.2916666666667,277.2708333333333
3695.5,-1854.0,277.5
3695.8958333333335,-1854.7083333333333,277.7291666666667
3696.2916666666665,-1855.4166666666667,277.9583333333333
3696.6875,-1856.125,278.1875
3697.0833333333335,-1856.8333333333333,278.4166666666667
3697.4791666666665,-1857.5416666666667,278.6458333333333
3697.875,-1858.25,278.875
3698.2708333333335,-1858.9583333333333,279.1041666666667
3698.6666666666665,-1859.6666666666667,279.3333333333333
3699.0625,-1860.375,279.5625
3699.4583333333335,-1861.0833333333333,279.7916666666667
3699.8541666666665,-1861.7916666666667,280.0208333333333
3700.25,-1862.5,280.25
3700.6458333333335,-1863.2083333333333,280.4791666666667
3701.0416666666665,-1863.9166666666667,280.7083333333333
3701.4375,-1864.625,280.9375
3701.8333333333335,-1865.3333333333333,281.1666666666667
3702.2291666666665,-1866.0416666666667,281.3958333333333
3702.625,-1866.75,281.625
3703.0208333333335,-1867.4583333333333,281.8541666666667
3703.4166666666665,-1868.1666666666667,282.0833333333333
3703.8125,-1868.875,282.3125
3704.2083333333335,-1869.5833333333333,282.5416666666667
3704.6041666666665,-1870.2916666666667,282.7708333333333
3705.0,-1871.0,283.0
