timestamp,accX,accY,accZ,ppg,spO2
2026-01-10 21:53:50.380,11.0,3904.0,1528.0,5655.0,7201.0
2026-01-10 21:53:50.400,12.16,3903.88,1527.7,5655.52,7207.28
2026-01-10 21:53:50.420,13.32,3903.76,1527.4,5656.04,7213.56
2026-01-10 21:53:50.440,14.48,3903.64,1527.1,5656.56,7219.84
2026-01-10 21:53:50.460,15.64,3903.52,1526.8,5657.08,7226.12
2026-01-10 21:53:50.480,16.8,3903.4,1526.5,5657.6,7232.4
2026-01-10 21:53:50.500,17.96,3903.28,1526.2,5658.12,7238.68
2026-01-10 21:53:50.520,19.119999999999997,3903.16,1525.9,5658.64,7244.96
2026-01-10 21:53:50.540,20.28,3903.04,1525.6,5659.16,7251.24
2026-01-10 21:53:50.560,21.439999999999998,3902.92,1525.3,5659.68,7257.52
2026-01-10 21:53:50.580,22.6,3902.8,1525.0,5660.2,7263.8
2026-01-10 21:53:50.600,23.759999999999998,3902.68,1524.7,5660.72,7270.08
2026-01-10 21:53:50.620,24.919999999999998,3902.56,1524.4,5661.24,7276.36
2026-01-10 21:53:50.640,26.08,3902.44,1524.1,5661.76,7282.64
2026-01-10 21:53:50.660,27.24,3902.32,1523.8,5662.28,7288.92
2026-01-10 21:53:50.680,28.4,3902.2,1523.5,5662.8,7295.2
2026-01-10 21:53:50.700,29.56,3902.08,1523.2,5663.32,7301.48
2026-01-10 21:53:50.720,30.72,3901.96,1522.9,5663.84,7307.76
2026-01-10 21:53:50.740,31.88,3901.84,1522.6,5664.36,7314.04
2026-01-10 21:53:50.760,33.04,3901.72,1522.3,5664.88,7320.32
2026-01-10 21:53:50.780,34.2,3901.6,1522.0,5665.4,7326.6
2026-01-10 21:53:50.800,35.36,3901.48,1521.7,5665.92,7332.88
2026-01-10 21:53:50.820,36.519999999999996,3901.36,1521.4,5666.44,7339.16
2026-01-10 21:53:50.840,37.68,3901.24,1521.1,5666.96,7345.44
2026-01-10 21:53:50.860,38.839999999999996,3901.12,1520.8,5667.48,7351.72
2026-01-10 21:53:50.880,40.0,3901.0,1520.5,5668.0,7358.0
2026-01-10 21:53:50.900,41.16,3900.88,1520.2,5668.52,7364.28
2026-01-10 21:53:50.920,42.31999999999999,3900.76,1519.9,5669.04,7370.56
2026-01-10 21:53:50.940,43.48,3900.64,1519.6,5669.56,7376.84
2026-01-10 21:53:50.960,44.64,3900.52,1519.3,5670.08,7383.12
2026-01-10 21:53:50.980,45.8,3900.4,1519.0,5670.6,7389.4
2026-01-10 21:53:51.000,46.96,3900.28,1518.7,5671.12,7395.68
2026-01-10 21:53:51.020,48.12,3900.16,1518.4,5671.64,7401.96
2026-01-10 21:53:51.040,49.279999999999994,3900.04,1518.1,5672.16,7408.24
2026-01-10 21:53:51.060,50.44,3899.92,1517.8,5672.68,7414.52
2026-01-10 21:53:51.080,51.599999999999994,3899.8,1517.5,5673.2,7420.8
2026-01-10 21:53:51.100,52.76,3899.68,1517.2,5673.72,7427.08
2026-01-10 21:53:51.120,53.919999999999995,3899.56,1516.9,5674.24,7433.36
2026-01-10 21:53:51.140,55.08,3899.44,1516.6,5674.76,7439.64
2026-01-10 21:53:51.160,56.239999999999995,3899.32,1516.3,5675.28,7445.92
2026-01-10 21:53:51.180,57.4,3899.2,1516.0,5675.8,7452.2
2026-01-10 21:53:51.200,58.559999999999995,3899.08,1515.7,5676.32,7458.48
2026-01-10 21:53:51.220,59.72,3898.96,1515.4,5676.84,7464.76
2026-01-10 21:53:51.240,60.879999999999995,3898.84,1515.1,5677.36,7471.04
2026-01-10 21:53:51.260,62.04,3898.72,1514.8,5677.88,7477.32
2026-01-10 21:53:51.280,63.199999999999996,3898.6,1514.5,5678.4,7483.6
2026-01-10 21:53:51.300,64.36,3898.48,1514.2,5678.92,7489.88
2026-01-10 21:53:51.320,65.52,3898.36,1513.9,5679.44,7496.16
2026-01-10 21:53:51.340,66.67999999999999,3898.24,1513.6,5679.96,7502.44
2026-01-10 21:53:51.360,67.84,3898.12,1513.3,5680.48,7508.72
2026-01-10 21:53:51.380,69.0,3898.0,1513.0,5681.0,7515.0
2026-01-10 21:53:51.400,107.03846153846155,3898.980769230769,1513.0,5678.4807692307695,7512.183673469388
2026-01-10 21:53:51.420,145.0769230769231,3899.9615384615386,1513.0,5675.961538461538,7509.367346938776
2026-01-10 21:53:51.440,183.1153846153846,3900.9423076923076,1513.0,5673.442307692308,7506.551020408163
2026-01-10 21:53:51.460,221.15384615384616,3901.923076923077,1513.0,5670.923076923077,7503.734693877551
2026-01-10 21:53:51.480,259.19230769230774,3902.903846153846,1513.0,5668.403846153846,7500.918367346939
2026-01-10 21:53:51.500,297.2307692307692,3903.8846153846152,1513.0,5665.884615384615,7498.102040816327
2026-01-10 21:53:51.520,335.2692307692308,3904.8653846153848,1513.0,5663.365384615385,7495.285714285715
2026-01-10 21:53:51.540,373.3076923076923,3905.846153846154,1513.0,5660.846153846154,7492.469387755102
2026-01-10 21:53:51.560,411.34615384615387,3906.826923076923,1513.0,5658.326923076923,7489.65306122449
2026-01-10 21:53:51.580,449.3846153846154,3907.8076923076924,1513.0,5655.807692307692,7486.836734693878
2026-01-10 21:53:51.600,487.42307692307696,3908.7884615384614,1513.0,5653.288461538462,7484.0204081632655
2026-01-10 21:53:51.620,525.4615384615385,3909.769230769231,1513.0,5650.7692307692305,7481.2040816326535
2026-01-10 21:53:51.640,563.5,3910.75,1513.0,5648.25,7478.3877551020405
2026-01-10 21:53:51.660,601.5384615384615,3911.730769230769,1513.0,5645.7307692307695,7475.571428571428
2026-01-10 21:53:51.680,639.5769230769231,3912.7115384615386,1513.0,5643.211538461538,7472.755102040816
2026-01-10 21:53:51.700,677.6153846153846,3913.6923076923076,1513.0,5640.692307692308,7469.938775510204
2026-01-10 21:53:51.720,715.6538461538462,3914.673076923077,1513.0,5638.173076923077,7467.122448979592
2026-01-10 21:53:51.740,753.6923076923077,3915.653846153846,1513.0,5635.653846153846,7464.306122448979
2026-01-10 21:53:51.760,791.7307692307693,3916.6346153846152,1513.0,5633.134615384615,7461.489795918367
2026-01-10 21:53:51.780,829.7692307692308,3917.6153846153848,1513.0,5630.615384615385,7458.673469387755
2026-01-10 21:53:51.800,867.8076923076924,3918.596153846154,1513.0,5628.096153846154,7455.857142857143
2026-01-10 21:53:51.820,905.8461538461539,3919.576923076923,1513.0,5625.576923076923,7453.040816326531
2026-01-10 21:53:51.840,943.8846153846155,3920.5576923076924,1513.0,5623.057692307692,7450.224489795918
2026-01-10 21:53:51.860,981.9230769230769,3921.5384615384614,1513.0,5620.538461538462,7447.408163265306
2026-01-10 21:53:51.880,1019.9615384615385,3922.519230769231,1513.0,5618.0192307692305,7444.591836734694
2026-01-10 21:53:51.900,1058.0,3923.5,1513.0,5615.5,7441.775510204082
2026-01-10 21:53:51.920,1096.0384615384617,3924.480769230769,1513.0,5612.9807692307695,7438.959183673469
2026-01-10 21:53:51.940,1134.076923076923,3925.4615384615386,1513.0,5610.461538461538,7436.142857142857
2026-01-10 21:53:51.960,1172.1153846153848,3926.4423076923076,1513.0,5607.942307692308,7433.326530612245
2026-01-10 21:53:51.980,1210.1538461538462,3927.423076923077,1513.0,5605.423076923077,7430.510204081633
2026-01-10 21:53:52.000,1248.1923076923078,3928.403846153846,1513.0,5602.903846153846,7427.693877551021
2026-01-10 21:53:52.020,1286.2307692307693,3929.3846153846152,1513.0,5600.384615384615,7424.877551020408
2026-01-10 21:53:52.040,1324.2692307692307,3930.3653846153848,1513.0,5597.865384615385,7422.061224489796
2026-01-10 21:53:52.060,1362.3076923076924,3931.346153846154,1513.0,5595.346153846154,7419.244897959184
2026-01-10 21:53:52.080,1400.3461538461538,3932.326923076923,1513.0,5592.826923076923,7416.428571428572
2026-01-10 21:53:52.100,1438.3846153846155,3933.3076923076924,1513.0,5590.307692307692,7413.6122448979595
2026-01-10 21:53:52.120,1476.423076923077,3934.2884615384614,1513.0,5587.788461538462,7410.7959183673465
2026-01-10 21:53:52.140,1514.4615384615386,3935.269230769231,1513.0,5585.2692307692305,7407.9795918367345
2026-01-10 21:53:52.160,1552.5,3936.25,1513.0,5582.75,7405.163265306122
2026-01-10 21:53:52.180,1590.5384615384617,3937.230769230769,1513.0,5580.2307692307695,7402.34693877551
2026-01-10 21:53:52.200,1628.576923076923,3938.2115384615386,1513.0,5577.711538461538,7399.530612244898
2026-01-10 21:53:52.220,1666.6153846153848,3939.1923076923076,1513.0,5575.192307692308,7396.714285714285
2026-01-10 21:53:52.240,1704.6538461538462,3940.173076923077,1513.0,5572.673076923077,7393.897959183673
2026-01-10 21:53:52.260,1742.6923076923078,3941.153846153846,1513.0,5570.153846153846,7391.081632653061
2026-01-10 21:53:52.280,1780.7307692307693,3942.1346153846152,1513.0,5567.634615384615,7388.265306122449
2026-01-10 21:53:52.300,1818.769230769231,3943.1153846153848,1513.0,5565.115384615385,7385.448979591837
2026-01-10 21:53:52.320,1856.8076923076924,3944.096153846154,1513.0,5562.596153846154,7382.632653061224
2026-01-10 21:53:52.340,1894.8461538461538,3945.076923076923,1513.0,5560.076923076923,7379.816326530612
2026-01-10 21:53:52.360,1932.8846153846155,3946.0576923076924,1513.0,5557.557692307692,7377.0
2026-01-10 21:53:52.380,1970.923076923077,3947.0384615384614,1513.0,5555.038461538462,7375.285714285715
2026-01-10 21:53:52.400,2008.9615384615386,3948.019230769231,1513.0,5552.5192307692305,7373.571428571428
2026-01-10 21:53:52.420,2047.0,3949.0,1513.0,5550.0,7371.857142857143
2026-01-10 21:53:52.440,2003.936170212766,3947.9148936170213,1513.1914893617022,5551.45652173913,7370.142857142857
2026-01-10 21:53:52.460,1960.872340425532,3946.8297872340427,1513.3829787234042,5552.913043478261,7368.428571428572
2026-01-10 21:53:52.480,1917.8085106382978,3945.744680851064,1513.5744680851064,5554.369565217391,7366.714285714285
2026-01-10 21:53:52.500,1874.7446808510638,3944.659574468085,1513.7659574468084,5555.826086956522,7365.0
2026-01-10 21:53:52.520,1831.6808510638298,3943.574468085106,1513.9574468085107,5557.282608695652,7363.285714285715
2026-01-10 21:53:52.540,1788.6170212765958,3942.4893617021276,1514.1489361702127,5558.739130434783,7361.571428571428
2026-01-10 21:53:52.560,1745.5531914893618,3941.404255319149,1514.340425531915,5560.195652173913,7359.857142857143
2026-01-10 21:53:52.580,1702.4893617021276,3940.31914893617,1514.531914893617,5561.652173913043,7358.142857142857
2026-01-10 21:53:52.600,1659.4255319148936,3939.2340425531916,1514.723404255319,5563.108695652174,7356.428571428572
2026-01-10 21:53:52.620,1616.3617021276596,3938.148936170213,1514.9148936170213,5564.565217391304,7354.714285714285
2026-01-10 21:53:52.640,1573.2978723404256,3937.063829787234,1515.1063829787233,5566.021739130435,7353.0
2026-01-10 21:53:52.660,1530.2340425531916,3935.978723404255,1515.2978723404256,5567.478260869565,7351.285714285715
2026-01-10 21:53:52.680,1487.1702127659573,3934.8936170212764,1515.4893617021276,5568.934782608696,7349.571428571428
2026-01-10 21:53:52.700,1444.1063829787236,3933.808510638298,1515.6808510638298,5570.391304347826,7347.857142857143
2026-01-10 21:53:52.720,1401.0425531914893,3932.723404255319,1515.872340425532,5571.847826086957,7346.142857142857
2026-01-10 21:53:52.740,1357.9787234042553,3931.6382978723404,1516.063829787234,5573.304347826087,7344.428571428572
2026-01-10 21:53:52.760,1314.9148936170213,3930.553191489362,1516.2553191489362,5574.760869565217,7342.714285714285
2026-01-10 21:53:52.780,1271.851063829787,3929.468085106383,1516.4468085106382,5576.217391304348,7341.0
2026-01-10 21:53:52.800,1228.7872340425533,3928.3829787234044,1516.6382978723404,5577.673913043478,7339.285714285715
2026-01-10 21:53:52.820,1185.723404255319,3927.2978723404253,1516.8297872340424,5579.130434782609,7337.571428571428
2026-01-10 21:53:52.840,1142.659574468085,3926.2127659574467,1517.0212765957447,5580.586956521739,7335.857142857143
2026-01-10 21:53:52.860,1099.595744680851,3925.127659574468,1517.212765957447,5582.04347826087,7334.142857142857
2026-01-10 21:53:52.880,1056.5319148936169,3924.0425531914893,1517.404255319149,5583.5,7332.428571428572
2026-01-10 21:53:52.900,1013.4680851063831,3922.9574468085107,1517.595744680851,5584.95652173913,7330.714285714285
2026-01-10 21:53:52.920,970.4042553191489,3921.872340425532,1517.787234042553,5586.413043478261,7329.0
2026-01-10 21:53:52.940,927.3404255319149,3920.7872340425533,1517.9787234042553,5587.869565217391,7327.285714285715
2026-01-10 21:53:52.960,884.2765957446809,3919.7021276595747,1518.1702127659576,5589.326086956522,7325.571428571428
2026-01-10 21:53:52.980,841.2127659574469,3918.6170212765956,1518.3617021276596,5590.782608695652,7323.857142857143
2026-01-10 21:53:53.000,798.1489361702129,3917.531914893617,1518.5531914893618,5592.239130434783,7322.142857142857
2026-01-10 21:53:53.020,755.0851063829787,3916.446808510638,1518.7446808510638,5593.695652173913,7320.428571428572
2026-01-10 21:53:53.040,712.0212765957447,3915.3617021276596,1518.936170212766,5595.152173913043,7318.714285714285
2026-01-10 21:53:53.060,668.9574468085107,3914.276595744681,1519.127659574468,5596.608695652174,7317.0
2026-01-10 21:53:53.080,625.8936170212767,3913.191489361702,1519.3191489361702,5598.065217391304,7315.285714285715
2026-01-10 21:53:53.100,582.8297872340427,3912.1063829787236,1519.5106382978724,5599.521739130435,7313.571428571428
2026-01-10 21:53:53.120,539.7659574468084,3911.021276595745,1519.7021276595744,5600.978260869565,7311.857142857143
2026-01-10 21:53:53.140,496.70212765957444,3909.936170212766,1519.8936170212767,5602.434782608696,7310.142857142857
2026-01-10 21:53:53.160,453.63829787234044,3908.851063829787,1520.0851063829787,5603.891304347826,7308.428571428572
2026-01-10 21:53:53.180,410.57446808510645,3907.7659574468084,1520.276595744681,5605.347826086957,7306.714285714285
2026-01-10 21:53:53.200,367.51063829787245,3906.68085106383,1520.468085106383,5606.804347826087,7305.0
2026-01-10 21:53:53.220,324.4468085106382,3905.595744680851,1520.659574468085,5608.260869565217,7303.285714285715
2026-01-10 21:53:53.240,281.3829787234042,3904.5106382978724,1520.8510638297873,5609.717391304348,7301.571428571428
2026-01-10 21:53:53.260,238.31914893617022,3903.425531914894,1521.0425531914893,5611.173913043478,7299.857142857143
2026-01-10 21:53:53.280,195.25531914893622,3902.340425531915,1521.2340425531916,5612.630434782609,7298.142857142857
2026-01-10 21:53:53.300,152.19148936170222,3901.255319148936,1521.4255319148936,5614.086956521739,7296.428571428572
2026-01-10 21:53:53.320,109.12765957446823,3900.1702127659573,1521.6170212765958,5615.54347826087,7294.714285714285
2026-01-10 21:53:53.340,66.063829787234,3899.0851063829787,1521.8085106382978,5617.0,7293.0
2026-01-10 21:53:53.360,23.0,3898.0,1522.0,5617.8,7298.16
2026-01-10 21:53:53.380,24.692307692307693,3897.3653846153848,1562.173076923077,5618.6,7303.32
2026-01-10 21:53:53.400,26.384615384615383,3896.730769230769,1602.3461538461538,5619.4,7308.48
2026-01-10 21:53:53.420,28.076923076923077,3896.096153846154,1642.5192307692307,5620.2,7313.64
2026-01-10 21:53:53.440,29.76923076923077,3895.4615384615386,1682.6923076923076,5621.0,7318.8
2026-01-10 21:53:53.460,31.46153846153846,3894.826923076923,1722.8653846153845,5621.8,7323.96
2026-01-10 21:53:53.480,33.15384615384615,3894.1923076923076,1763.0384615384614,5622.6,7329.12
2026-01-10 21:53:53.500,34.84615384615385,3893.5576923076924,1803.2115384615386,5623.4,7334.28
2026-01-10 21:53:53.520,36.53846153846154,3892.923076923077,1843.3846153846152,5624.2,7339.44
2026-01-10 21:53:53.540,38.230769230769226,3892.2884615384614,1883.5576923076924,5625.0,7344.6
2026-01-10 21:53:53.560,39.92307692307692,3891.653846153846,1923.730769230769,5625.8,7349.76
2026-01-10 21:53:53.580,41.61538461538461,3891.019230769231,1963.9038461538462,5626.6,7354.92
2026-01-10 21:53:53.600,43.30769230769231,3890.3846153846152,2004.076923076923,5627.4,7360.08
2026-01-10 21:53:53.620,45.0,3889.75,2044.25,5628.2,7365.24
2026-01-10 21:53:53.640,46.69230769230769,3889.1153846153848,2084.423076923077,5629.0,7370.4
2026-01-10 21:53:53.660,48.38461538461539,3888.480769230769,2124.596153846154,5629.8,7375.56
2026-01-10 21:53:53.680,50.07692307692308,3887.846153846154,2164.7692307692305,5630.6,7380.72
2026-01-10 21:53:53.700,51.769230769230774,3887.2115384615386,2204.9423076923076,5631.4,7385.88
2026-01-10 21:53:53.720,53.46153846153846,3886.576923076923,2245.1153846153848,5632.2,7391.04
2026-01-10 21:53:53.740,55.15384615384615,3885.9423076923076,2285.2884615384614,5633.0,7396.2
2026-01-10 21:53:53.760,56.84615384615385,3885.3076923076924,2325.461538461538,5633.8,7401.36
2026-01-10 21:53:53.780,58.53846153846154,3884.673076923077,2365.6346153846152,5634.6,7406.52
2026-01-10 21:53:53.800,60.23076923076923,3884.0384615384614,2405.8076923076924,5635.4,7411.68
2026-01-10 21:53:53.820,61.92307692307692,3883.403846153846,2445.980769230769,5636.2,7416.84
2026-01-10 21:53:53.840,63.61538461538461,3882.769230769231,2486.153846153846,5637.0,7422.0
2026-01-10 21:53:53.860,65.3076923076923,3882.1346153846152,2526.326923076923,5637.8,7427.16
2026-01-10 21:53:53.880,67.0,3881.5,2566.5,5638.6,7432.32
2026-01-10 21:53:53.900,68.6923076923077,3880.8653846153848,2606.673076923077,5639.4,7437.48
2026-01-10 21:53:53.920,70.38461538461539,3880.230769230769,2646.846153846154,5640.2,7442.64
2026-01-10 21:53:53.940,72.07692307692307,3879.596153846154,2687.0192307692305,5641.0,7447.8
2026-01-10 21:53:53.960,73.76923076923077,3878.9615384615386,2727.1923076923076,5641.8,7452.96
2026-01-10 21:53:53.980,75.46153846153845,3878.326923076923,2767.3653846153848,5642.6,7458.12
2026-01-10 21:53:54.000,77.15384615384616,3877.6923076923076,2807.5384615384614,5643.4,7463.28
2026-01-10 21:53:54.020,78.84615384615384,3877.0576923076924,2847.711538461538,5644.2,7468.44
2026-01-10 21:53:54.040,80.53846153846155,3876.423076923077,2887.8846153846152,5645.0,7473.6
2026-01-10 21:53:54.060,82.23076923076923,3875.7884615384614,2928.0576923076924,5645.8,7478.76
2026-01-10 21:53:54.080,83.92307692307692,3875.153846153846,2968.230769230769,5646.6,7483.92
2026-01-10 21:53:54.100,85.61538461538461,3874.519230769231,3008.4038461538457,5647.4,7489.08
2026-01-10 21:53:54.120,87.3076923076923,3873.8846153846152,3048.576923076923,5648.2,7494.24
2026-01-10 21:53:54.140,89.0,3873.25,3088.75,5649.0,7499.4
2026-01-10 21:53:54.160,90.6923076923077,3872.6153846153848,3128.9230769230767,5649.8,7504.56
2026-01-10 21:53:54.180,92.38461538461539,3871.980769230769,3169.096153846154,5650.6,7509.72
2026-01-10 21:53:54.200,94.07692307692308,3871.346153846154,3209.2692307692305,5651.4,7514.88
2026-01-10 21:53:54.220,95.76923076923077,3870.7115384615386,3249.4423076923076,5652.2,7520.04
2026-01-10 21:53:54.240,97.46153846153847,3870.076923076923,3289.6153846153848,5653.0,7525.2
2026-01-10 21:53:54.260,99.15384615384615,3869.4423076923076,3329.7884615384614,5653.8,7530.36
2026-01-10 21:53:54.280,100.84615384615384,3868.8076923076924,3369.961538461538,5654.6,7535.52
2026-01-10 21:53:54.300,102.53846153846153,3868.173076923077,3410.1346153846152,5655.4,7540.68
2026-01-10 21:53:54.320,104.23076923076923,3867.5384615384614,3450.3076923076924,5656.2,7545.84
2026-01-10 21:53:54.340,105.92307692307692,3866.903846153846,3490.480769230769,5657.0,7551.0
2026-01-10 21:53:54.360,107.61538461538461,3866.269230769231,3530.6538461538457,5656.25,7548.288461538462
2026-01-10 21:53:54.380,109.3076923076923,3865.6346153846152,3570.826923076923,5655.5,7545.576923076923
2026-01-10 21:53:54.400,111.0,3865.0,3611.0,5654.75,7542.865384615385
2026-01-10 21:53:54.420,110.3061224489796,3826.0408163265306,3611.0204081632655,5654.0,7540.153846153846
2026-01-10 21:53:54.440,109.61224489795919,3787.081632653061,3611.0408163265306,5653.25,7537.442307692308
2026-01-10 21:53:54.460,108.91836734693878,3748.122448979592,3611.061224489796,5652.5,7534.7307692307695
2026-01-10 21:53:54.480,108.22448979591837,3709.1632653061224,3611.081632653061,5651.75,7532.0192307692305
2026-01-10 21:53:54.500,107.53061224489795,3670.204081632653,3611.1020408163267,5651.0,7529.307692307692
2026-01-10 21:53:54.520,106.83673469387755,3631.2448979591836,3611.122448979592,5650.25,7526.596153846154
2026-01-10 21:53:54.540,106.14285714285714,3592.285714285714,3611.1428571428573,5649.5,7523.884615384615
2026-01-10 21:53:54.560,105.44897959183673,3553.326530612245,3611.1632653061224,5648.75,7521.173076923077
2026-01-10 21:53:54.580,104.75510204081633,3514.3673469387754,3611.183673469388,5648.0,7518.461538461538
2026-01-10 21:53:54.600,104.06122448979592,3475.408163265306,3611.204081632653,5647.25,7515.75
2026-01-10 21:53:54.620,103.36734693877551,3436.4489795918366,3611.2244897959185,5646.5,7513.038461538462
2026-01-10 21:53:54.640,102.6734693877551,3397.4897959183672,3611.2448979591836,5645.75,7510.326923076923
2026-01-10 21:53:54.660,101.9795918367347,3358.530612244898,3611.265306122449,5645.0,7507.615384615385
2026-01-10 21:53:54.680,101.28571428571429,3319.5714285714284,3611.285714285714,5644.25,7504.903846153846
2026-01-10 21:53:54.700,100.59183673469389,3280.612244897959,3611.3061224489797,5643.5,7502.192307692308
2026-01-10 21:53:54.720,99.89795918367346,3241.6530612244896,3611.326530612245,5642.75,7499.4807692307695
2026-01-10 21:53:54.740,99.20408163265306,3202.6938775510203,3611.3469387755104,5642.0,7496.7692307692305
2026-01-10 21:53:54.760,98.51020408163265,3163.734693877551,3611.3673469387754,5641.25,7494.057692307692
2026-01-10 21:53:54.780,97.81632653061224,3124.7755102040815,3611.387755102041,5640.5,7491.346153846154
2026-01-10 21:53:54.800,97.12244897959184,3085.816326530612,3611.408163265306,5639.75,7488.634615384615
2026-01-10 21:53:54.820,96.42857142857143,3046.8571428571427,3611.4285714285716,5639.0,7485.923076923077
2026-01-10 21:53:54.840,95.73469387755102,3007.8979591836733,3611.4489795918366,5638.25,7483.211538461538
2026-01-10 21:53:54.860,95.04081632653062,2968.938775510204,3611.469387755102,5637.5,7480.5
2026-01-10 21:53:54.880,94.34693877551021,2929.9795918367345,3611.4897959183672,5636.75,7477.788461538462
2026-01-10 21:53:54.900,93.65306122448979,2891.0204081632655,3611.5102040816328,5636.0,7475.076923076923
2026-01-10 21:53:54.920,92.95918367346938,2852.0612244897957,3611.530612244898,5635.25,7472.365384615385
2026-01-10 21:53:54.940,92.26530612244898,2813.1020408163267,3611.5510204081634,5634.5,7469.653846153846
2026-01-10 21:53:54.960,91.57142857142857,2774.142857142857,3611.5714285714284,5633.75,7466.942307692308
2026-01-10 21:53:54.980,90.87755102040816,2735.183673469388,3611.591836734694,5633.0,7464.2307692307695
2026-01-10 21:53:55.000,90.18367346938776,2696.224489795918,3611.612244897959,5632.25,7461.5192307692305
2026-01-10 21:53:55.020,89.48979591836735,2657.265306122449,3611.6326530612246,5631.5,7458.807692307692
2026-01-10 21:53:55.040,88.79591836734694,2618.3061224489793,3611.6530612244896,5630.75,7456.096153846154
2026-01-10 21:53:55.060,88.10204081632654,2579.3469387755104,3611.673469387755,5630.0,7453.384615384615
2026-01-10 21:53:55.080,87.40816326530611,2540.3877551020405,3611.6938775510203,5629.25,7450.673076923077
2026-01-10 21:53:55.100,86.71428571428572,2501.4285714285716,3611.714285714286,5628.5,7447.961538461538
2026-01-10 21:53:55.120,86.0204081632653,2462.4693877551017,3611.734693877551,5627.75,7445.25
2026-01-10 21:53:55.140,85.3265306122449,2423.5102040816328,3611.7551020408164,5627.0,7442.538461538462
2026-01-10 21:53:55.160,84.63265306122449,2384.551020408163,3611.7755102040815,5626.25,7439.826923076923
2026-01-10 21:53:55.180,83.93877551020408,2345.591836734694,3611.795918367347,5625.5,7437.115384615385
2026-01-10 21:53:55.200,83.24489795918367,2306.632653061224,3611.816326530612,5624.75,7434.403846153846
2026-01-10 21:53:55.220,82.55102040816327,2267.673469387755,3611.8367346938776,5624.0,7431.692307692308
2026-01-10 21:53:55.240,81.85714285714286,2228.7142857142853,3611.8571428571427,5623.25,7428.9807692307695
2026-01-10 21:53:55.260,81.16326530612245,2189.7551020408164,3611.877551020408,5622.5,7426.2692307692305
2026-01-10 21:53:55.280,80.46938775510205,2150.7959183673465,3611.8979591836733,5621.75,7423.557692307692
2026-01-10 21:53:55.300,79.77551020408163,2111.8367346938776,3611.918367346939,5621.0,7420.846153846154
2026-01-10 21:53:55.320,79.08163265306122,2072.8775510204077,3611.938775510204,5620.25,7418.134615384615
2026-01-10 21:53:55.340,78.38775510204081,2033.9183673469386,3611.9591836734694,5619.5,7415.423076923077
2026-01-10 21:53:55.360,77.6938775510204,1994.9591836734694,3611.9795918367345,5618.75,7412.711538461538
2026-01-10 21:53:55.380,77.0,1956.0,3612.0,5618.0,7410.0
2026-01-10 21:53:55.400,77.2,1995.22,3611.9,5618.54,7412.32
2026-01-10 21:53:55.420,77.4,2034.44,3611.8,5619.08,7414.64
2026-01-10 21:53:55.440,77.6,2073.66,3611.7,5619.62,7416.96
2026-01-10 21:53:55.460,77.8,2112.88,3611.6,5620.16,7419.28
2026-01-10 21:53:55.480,78.0,2152.1,3611.5,5620.7,7421.6
2026-01-10 21:53:55.500,78.2,2191.32,3611.4,5621.24,7423.92
2026-01-10 21:53:55.520,78.4,2230.54,3611.3,5621.78,7426.24
2026-01-10 21:53:55.540,78.6,2269.76,3611.2,5622.32,7428.56
2026-01-10 21:53:55.560,78.8,2308.98,3611.1,5622.86,7430.88
2026-01-10 21:53:55.580,79.0,2348.2,3611.0,5623.4,7433.2
2026-01-10 21:53:55.600,79.2,2387.42,3610.9,5623.94,7435.52
2026-01-10 21:53:55.620,79.4,2426.64,3610.8,5624.48,7437.84
2026-01-10 21:53:55.640,79.6,2465.86,3610.7,5625.02,7440.16
2026-01-10 21:53:55.660,79.8,2505.08,3610.6,5625.56,7442.48
2026-01-10 21:53:55.680,80.0,2544.3,3610.5,5626.1,7444.8
2026-01-10 21:53:55.700,80.2,2583.52,3610.4,5626.64,7447.12
2026-01-10 21:53:55.720,80.4,2622.74,3610.3,5627.18,7449.44
2026-01-10 21:53:55.740,80.6,2661.96,3610.2,5627.72,7451.76
2026-01-10 21:53:55.760,80.8,2701.18,3610.1,5628.26,7454.08
2026-01-10 21:53:55.780,81.0,2740.4,3610.0,5628.8,7456.4
2026-01-10 21:53:55.800,81.2,2779.62,3609.9,5629.34,7458.72
2026-01-10 21:53:55.820,81.4,2818.84,3609.8,5629.88,7461.04
2026-01-10 21:53:55.840,81.6,2858.06,3609.7,5630.42,7463.36
2026-01-10 21:53:55.860,81.8,2897.2799999999997,3609.6,5630.96,7465.68
2026-01-10 21:53:55.880,82.0,2936.5,3609.5,5631.5,7468.0
2026-01-10 21:53:55.900,82.2,2975.7200000000003,3609.4,5632.04,7470.32
2026-01-10 21:53:55.920,82.4,3014.94,3609.3,5632.58,7472.64
2026-01-10 21:53:55.940,82.6,3054.16,3609.2,5633.12,7474.96
2026-01-10 21:53:55.960,82.8,3093.38,3609.1,5633.66,7477.28
2026-01-10 21:53:55.980,83.0,3132.6,3609.0,5634.2,7479.6
2026-01-10 21:53:56.000,83.2,3171.8199999999997,3608.9,5634.74,7481.92
2026-01-10 21:53:56.020,83.4,3211.04,3608.8,5635.28,7484.24
2026-01-10 21:53:56.040,83.6,3250.26,3608.7,5635.82,7486.56
2026-01-10 21:53:56.060,83.8,3289.48,3608.6,5636.36,7488.88
2026-01-10 21:53:56.080,84.0,3328.7,3608.5,5636.9,7491.2
2026-01-10 21:53:56.100,84.2,3367.92,3608.4,5637.44,7493.52
2026-01-10 21:53:56.120,84.4,3407.14,3608.3,5637.98,7495.84
2026-01-10 21:53:56.140,84.6,3446.3599999999997,3608.2,5638.52,7498.16
2026-01-10 21:53:56.160,84.8,3485.58,3608.1,5639.06,7500.48
2026-01-10 21:53:56.180,85.0,3524.8,3608.0,5639.6,7502.8
2026-01-10 21:53:56.200,85.2,3564.02,3607.9,5640.14,7505.12
2026-01-10 21:53:56.220,85.4,3603.24,3607.8,5640.68,7507.44
2026-01-10 21:53:56.240,85.6,3642.46,3607.7,5641.22,7509.76
2026-01-10 21:53:56.260,85.8,3681.68,3607.6,5641.76,7512.08
2026-01-10 21:53:56.280,86.0,3720.8999999999996,3607.5,5642.3,7514.4
2026-01-10 21:53:56.300,86.2,3760.12,3607.4,5642.84,7516.72
2026-01-10 21:53:56.320,86.4,3799.34,3607.3,5643.38,7519.04
2026-01-10 21:53:56.340,86.6,3838.56,3607.2,5643.92,7521.36
2026-01-10 21:53:56.360,86.8,3877.7799999999997,3607.1,5644.46,7523.68
2026-01-10 21:53:56.380,87.0,3917.0,3607.0,5645.0,7526.0
2026-01-10 21:53:56.400,86.96078431372548,3917.7843137254904,3564.921568627451,5645.176470588235,7525.3725490196075
2026-01-10 21:53:56.420,86.92156862745098,3918.5686274509803,3522.843137254902,5645.35294117647,7524.745098039216
2026-01-10 21:53:56.440,86.88235294117646,3919.3529411764707,3480.764705882353,5645.529411764706,7524.117647058823
2026-01-10 21:53:56.460,86.84313725490196,3920.1372549019607,3438.6862745098038,5645.705882352941,7523.490196078431
2026-01-10 21:53:56.480,86.80392156862744,3920.921568627451,3396.607843137255,5645.882352941177,7522.862745098039
2026-01-10 21:53:56.500,86.76470588235294,3921.705882352941,3354.529411764706,5646.058823529412,7522.235294117647
2026-01-10 21:53:56.520,86.72549019607843,3922.4901960784314,3312.450980392157,5646.235294117647,7521.607843137255
2026-01-10 21:53:56.540,86.68627450980392,3923.274509803922,3270.372549019608,5646.411764705882,7520.980392156863
2026-01-10 21:53:56.560,86.6470588235294,3924.0588235294117,3228.294117647059,5646.588235294118,7520.35294117647
2026-01-10 21:53:56.580,86.6078431372549,3924.843137254902,3186.2156862745096,5646.764705882353,7519.725490196079
2026-01-10 21:53:56.600,86.56862745098039,3925.627450980392,3144.1372549019607,5646.941176470588,7519.098039215686
2026-01-10 21:53:56.620,86.52941176470588,3926.4117647058824,3102.0588235294117,5647.117647058823,7518.470588235294
2026-01-10 21:53:56.640,86.49019607843137,3927.1960784313724,3059.9803921568628,5647.294117647059,7517.843137254902
2026-01-10 21:53:56.660,86.45098039215686,3927.9803921568628,3017.901960784314,5647.470588235294,7517.21568627451
2026-01-10 21:53:56.680,86.41176470588235,3928.764705882353,2975.823529411765,5647.64705882353,7516.588235294118
2026-01-10 21:53:56.700,86.37254901960785,3929.549019607843,2933.745098039216,5647.823529411765,7515.9607843137255
2026-01-10 21:53:56.720,86.33333333333333,3930.3333333333335,2891.6666666666665,5648.0,7515.333333333333
2026-01-10 21:53:56.740,86.29411764705883,3931.1176470588234,2849.5882352941176,5648.176470588235,7514.705882352941
2026-01-10 21:53:56.760,86.25490196078431,3931.901960784314,2807.5098039215686,5648.35294117647,7514.078431372549
2026-01-10 21:53:56.780,86.2156862745098,3932.6862745098038,2765.4313725490197,5648.529411764706,7513.450980392156
2026-01-10 21:53:56.800,86.17647058823529,3933.470588235294,2723.3529411764707,5648.705882352941,7512.823529411765
2026-01-10 21:53:56.820,86.13725490196079,3934.2549019607845,2681.2745098039213,5648.882352941177,7512.196078431372
2026-01-10 21:53:56.840,86.09803921568627,3935.0392156862745,2639.1960784313724,5649.058823529412,7511.568627450981
2026-01-10 21:53:56.860,86.05882352941177,3935.823529411765,2597.1176470588234,5649.235294117647,7510.941176470588
2026-01-10 21:53:56.880,86.01960784313725,3936.607843137255,2555.0392156862745,5649.411764705882,7510.313725490196
2026-01-10 21:53:56.900,85.98039215686275,3937.392156862745,2512.9607843137255,5649.588235294118,7509.686274509804
2026-01-10 21:53:56.920,85.94117647058823,3938.176470588235,2470.8823529411766,5649.764705882353,7509.058823529412
2026-01-10 21:53:56.940,85.90196078431373,3938.9607843137255,2428.8039215686276,5649.941176470588,7508.431372549019
2026-01-10 21:53:56.960,85.86274509803921,3939.7450980392155,2386.7254901960787,5650.117647058823,7507.803921568628
2026-01-10 21:53:56.980,85.82352941176471,3940.529411764706,2344.6470588235297,5650.294117647059,7507.176470588235
2026-01-10 21:53:57.000,85.7843137254902,3941.3137254901962,2302.5686274509803,5650.470588235294,7506.549019607844
2026-01-10 21:53:57.020,85.74509803921569,3942.098039215686,2260.4901960784314,5650.64705882353,7505.921568627451
2026-01-10 21:53:57.040,85.70588235294117,3942.8823529411766,2218.4117647058824,5650.823529411765,7505.294117647059
2026-01-10 21:53:57.060,85.66666666666667,3943.6666666666665,2176.333333333333,5651.0,7504.666666666667
2026-01-10 21:53:57.080,85.62745098039215,3944.450980392157,2134.254901960784,5651.176470588235,7504.0392156862745
2026-01-10 21:53:57.100,85.58823529411765,3945.235294117647,2092.176470588235,5651.35294117647,7503.411764705882
2026-01-10 21:53:57.120,85.54901960784314,3946.0196078431372,2050.098039215686,5651.529411764706,7502.78431372549
2026-01-10 21:53:57.140,85.50980392156863,3946.8039215686276,2008.0196078431372,5651.705882352941,7502.156862745098
2026-01-10 21:53:57.160,85.47058823529412,3947.5882352941176,1965.9411764705883,5651.882352941177,7501.529411764706
2026-01-10 21:53:57.180,85.43137254901961,3948.372549019608,1923.8627450980393,5652.058823529412,7500.901960784314
2026-01-10 21:53:57.200,85.3921568627451,3949.156862745098,1881.7843137254902,5652.235294117647,7500.274509803921
2026-01-10 21:53:57.220,85.3529411764706,3949.9411764705883,1839.7058823529412,5652.411764705882,7499.64705882353
2026-01-10 21:53:57.240,85.31372549019608,3950.725490196078,1797.6274509803923,5652.588235294118,7499.019607843137
2026-01-10 21:53:57.260,85.27450980392157,3951.5098039215686,1755.549019607843,5652.764705882353,7498.392156862745
2026-01-10 21:53:57.280,85.23529411764706,3952.294117647059,1713.4705882352941,5652.941176470588,7497.764705882353
2026-01-10 21:53:57.300,85.19607843137256,3953.078431372549,1671.3921568627452,5653.117647058823,7497.137254901961
2026-01-10 21:53:57.320,85.15686274509804,3953.8627450980393,1629.313725490196,5653.294117647059,7496.509803921569
2026-01-10 21:53:57.340,85.11764705882354,3954.6470588235293,1587.235294117647,5653.470588235294,7495.882352941177
2026-01-10 21:53:57.360,85.07843137254902,3955.4313725490197,1545.156862745098,5653.64705882353,7495.254901960784
2026-01-10 21:53:57.380,85.03921568627452,3956.2156862745096,1503.078431372549,5653.823529411765,7494.6274509803925
2026-01-10 21:53:57.400,85.0,3957.0,1461.0,5654.0,7494.0
2026-01-10 21:53:57.420,84.47916666666667,3915.0416666666665,1505.9583333333333,5654.291666666667,7493.958333333333
2026-01-10 21:53:57.440,83.95833333333333,3873.0833333333335,1550.9166666666667,5654.583333333333,7493.916666666667
2026-01-10 21:53:57.460,83.4375,3831.125,1595.875,5654.875,7493.875
2026-01-10 21:53:57.480,82.91666666666667,3789.1666666666665,1640.8333333333333,5655.166666666667,7493.833333333333
2026-01-10 21:53:57.500,82.39583333333333,3747.2083333333335,1685.7916666666667,5655.458333333333,7493.791666666667
2026-01-10 21:53:57.520,81.875,3705.25,1730.75,5655.75,7493.75
2026-01-10 21:53:57.540,81.35416666666667,3663.2916666666665,1775.7083333333335,5656.041666666667,7493.708333333333
2026-01-10 21:53:57.560,80.83333333333333,3621.3333333333335,1820.6666666666667,5656.333333333333,7493.666666666667
2026-01-10 21:53:57.580,80.3125,3579.375,1865.625,5656.625,7493.625
2026-01-10 21:53:57.600,79.79166666666667,3537.4166666666665,1910.5833333333335,5656.916666666667,7493.583333333333
2026-01-10 21:53:57.620,79.27083333333333,3495.4583333333335,1955.5416666666667,5657.208333333333,7493.541666666667
2026-01-10 21:53:57.640,78.75,3453.5,2000.5,5657.5,7493.5
2026-01-10 21:53:57.660,78.22916666666667,3411.5416666666665,2045.4583333333335,5657.791666666667,7493.458333333333
2026-01-10 21:53:57.680,77.70833333333333,3369.583333333333,2090.416666666667,5658.083333333333,7493.416666666667
2026-01-10 21:53:57.700,77.1875,3327.625,2135.375,5658.375,7493.375
2026-01-10 21:53:57.720,76.66666666666667,3285.6666666666665,2180.3333333333335,5658.666666666667,7493.333333333333
2026-01-10 21:53:57.740,76.14583333333333,3243.708333333333,2225.291666666667,5658.958333333333,7493.291666666667
2026-01-10 21:53:57.760,75.625,3201.75,2270.25,5659.25,7493.25
2026-01-10 21:53:57.780,75.10416666666667,3159.7916666666665,2315.2083333333335,5659.541666666667,7493.208333333333
2026-01-10 21:53:57.800,74.58333333333333,3117.833333333333,2360.166666666667,5659.833333333333,7493.166666666667
2026-01-10 21:53:57.820,74.0625,3075.875,2405.125,5660.125,7493.125
2026-01-10 21:53:57.840,73.54166666666667,3033.9166666666665,2450.0833333333335,5660.416666666667,7493.083333333333
2026-01-10 21:53:57.860,73.02083333333333,2991.958333333333,2495.041666666667,5660.708333333333,7493.041666666667
2026-01-10 21:53:57.880,72.5,2950.0,2540.0,5661.0,7493.0
2026-01-10 21:53:57.900,71.97916666666667,2908.0416666666665,2584.9583333333335,5661.291666666667,7492.958333333333
2026-01-10 21:53:57.920,71.45833333333333,2866.083333333333,2629.916666666667,5661.583333333333,7492.916666666667
2026-01-10 21:53:57.940,70.9375,2824.125,2674.875,5661.875,7492.875
2026-01-10 21:53:57.960,70.41666666666667,2782.1666666666665,2719.8333333333335,5662.166666666667,7492.833333333333
2026-01-10 21:53:57.980,69.89583333333333,2740.208333333333,2764.791666666667,5662.458333333333,7492.791666666667
2026-01-10 21:53:58.000,69.375,2698.25,2809.75,5662.75,7492.75
2026-01-10 21:53:58.020,68.85416666666666,2656.2916666666665,2854.7083333333335,5663.041666666667,7492.708333333333
2026-01-10 21:53:58.040,68.33333333333333,2614.333333333333,2899.666666666667,5663.333333333333,7492.666666666667
2026-01-10 21:53:58.060,67.8125,2572.375,2944.625,5663.625,7492.625
2026-01-10 21:53:58.080,67.29166666666666,2530.4166666666665,2989.5833333333335,5663.916666666667,7492.583333333333
2026-01-10 21:53:58.100,66.77083333333333,2488.458333333333,3034.541666666667,5664.208333333333,7492.541666666667
2026-01-10 21:53:58.120,66.25,2446.5,3079.5,5664.5,7492.5
2026-01-10 21:53:58.140,65.72916666666666,2404.5416666666665,3124.4583333333335,5664.791666666667,7492.458333333333
2026-01-10 21:53:58.160,65.20833333333333,2362.583333333333,3169.416666666667,5665.083333333333,7492.416666666667
2026-01-10 21:53:58.180,64.6875,2320.625,3214.375,5665.375,7492.375
2026-01-10 21:53:58.200,64.16666666666666,2278.6666666666665,3259.3333333333335,5665.666666666667,7492.333333333333
2026-01-10 21:53:58.220,63.64583333333333,2236.708333333333,3304.291666666667,5665.958333333333,7492.291666666667
2026-01-10 21:53:58.240,63.125,2194.75,3349.25,5666.25,7492.25
2026-01-10 21:53:58.260,62.604166666666664,2152.7916666666665,3394.2083333333335,5666.541666666667,7492.208333333333
2026-01-10 21:53:58.280,62.08333333333333,2110.833333333333,3439.166666666667,5666.833333333333,7492.166666666667
2026-01-10 21:53:58.300,61.5625,2068.875,3484.125,5667.125,7492.125
2026-01-10 21:53:58.320,61.041666666666664,2026.9166666666665,3529.0833333333335,5667.416666666667,7492.083333333333
2026-01-10 21:53:58.340,60.52083333333333,1984.9583333333333,3574.041666666667,5667.708333333333,7492.041666666667
2026-01-10 21:53:58.360,60.0,1943.0,3619.0,5668.0,7492.0
2026-01-10 21:53:58.380,22.403846153846153,1981.9038461538462,3620.3076923076924,5668.115384615385,7492.807692307692
2026-01-10 21:53:58.400,-15.192307692307693,2020.8076923076924,3621.6153846153848,5668.2307692307695,7493.615384615385
2026-01-10 21:53:58.420,-52.78846153846155,2059.7115384615386,3622.923076923077,5668.346153846154,7494.423076923077
2026-01-10 21:53:58.440,-90.38461538461539,2098.6153846153848,3624.230769230769,5668.461538461538,7495.2307692307695
2026-01-10 21:53:58.460,-127.98076923076923,2137.519230769231,3625.5384615384614,5668.576923076923,7496.038461538462
2026-01-10 21:53:58.480,-165.5769230769231,2176.423076923077,3626.846153846154,5668.692307692308,7496.846153846154
2026-01-10 21:53:58.500,-203.1730769230769,2215.326923076923,3628.153846153846,5668.807692307692,7497.653846153846
2026-01-10 21:53:58.520,-240.76923076923077,2254.230769230769,3629.4615384615386,5668.923076923077,7498.461538461538
2026-01-10 21:53:58.540,-278.36538461538464,2293.1346153846152,3630.769230769231,5669.038461538462,7499.2692307692305
2026-01-10 21:53:58.560,-315.96153846153845,2332.0384615384614,3632.076923076923,5669.153846153846,7500.076923076923
2026-01-10 21:53:58.580,-353.5576923076923,2370.9423076923076,3633.3846153846152,5669.2692307692305,7500.884615384615
2026-01-10 21:53:58.600,-391.1538461538462,2409.846153846154,3634.6923076923076,5669.384615384615,7501.692307692308
2026-01-10 21:53:58.620,-428.75,2448.75,3636.0,5669.5,7502.5
2026-01-10 21:53:58.640,-466.3461538461538,2487.653846153846,3637.3076923076924,5669.615384615385,7503.307692307692
2026-01-10 21:53:58.660,-503.94230769230774,2526.5576923076924,3638.6153846153848,5669.7307692307695,7504.115384615385
2026-01-10 21:53:58.680,-541.5384615384615,2565.4615384615386,3639.923076923077,5669.846153846154,7504.923076923077
2026-01-10 21:53:58.700,-579.1346153846154,2604.3653846153848,3641.230769230769,5669.961538461538,7505.7307692307695
2026-01-10 21:53:58.720,-616.7307692307693,2643.2692307692305,3642.5384615384614,5670.076923076923,7506.538461538462
2026-01-10 21:53:58.740,-654.3269230769231,2682.173076923077,3643.846153846154,5670.192307692308,7507.346153846154
2026-01-10 21:53:58.760,-691.9230769230769,2721.076923076923,3645.153846153846,5670.307692307692,7508.153846153846
2026-01-10 21:53:58.780,-729.5192307692308,2759.980769230769,3646.4615384615386,5670.423076923077,7508.961538461538
2026-01-10 21:53:58.800,-767.1153846153846,2798.8846153846152,3647.769230769231,5670.538461538462,7509.7692307692305
2026-01-10 21:53:58.820,-804.7115384615385,2837.7884615384614,3649.076923076923,5670.653846153846,7510.576923076923
2026-01-10 21:53:58.840,-842.3076923076924,2876.6923076923076,3650.3846153846152,5670.7692307692305,7511.384615384615
2026-01-10 21:53:58.860,-879.9038461538462,2915.596153846154,3651.6923076923076,5670.884615384615,7512.192307692308
2026-01-10 21:53:58.880,-917.5,2954.5,3653.0,5671.0,7513.0
2026-01-10 21:53:58.900,-955.0961538461538,2993.403846153846,3654.3076923076924,5671.115384615385,7513.807692307692
2026-01-10 21:53:58.920,-992.6923076923076,3032.3076923076924,3655.6153846153848,5671.2307692307695,7514.615384615385
2026-01-10 21:53:58.940,-1030.2884615384617,3071.211538461538,3656.923076923077,5671.346153846154,7515.423076923077
2026-01-10 21:53:58.960,-1067.8846153846155,3110.1153846153848,3658.230769230769,5671.461538461538,7516.2307692307695
2026-01-10 21:53:58.980,-1105.4807692307693,3149.0192307692305,3659.5384615384614,5671.576923076923,7517.038461538462
2026-01-10 21:53:59.000,-1143.076923076923,3187.923076923077,3660.846153846154,5671.692307692308,7517.846153846154
2026-01-10 21:53:59.020,-1180.673076923077,3226.826923076923,3662.153846153846,5671.807692307692,7518.653846153846
2026-01-10 21:53:59.040,-1218.2692307692307,3265.7307692307695,3663.4615384615386,5671.923076923077,7519.461538461538
2026-01-10 21:53:59.060,-1255.8653846153845,3304.6346153846152,3664.769230769231,5672.038461538462,7520.2692307692305
2026-01-10 21:53:59.080,-1293.4615384615386,3343.5384615384614,3666.076923076923,5672.153846153846,7521.076923076923
2026-01-10 21:53:59.100,-1331.0576923076924,3382.4423076923076,3667.3846153846152,5672.2692307692305,7521.884615384615
2026-01-10 21:53:59.120,-1368.6538461538462,3421.346153846154,3668.6923076923076,5672.384615384615,7522.692307692308
2026-01-10 21:53:59.140,-1406.25,3460.25,3670.0,5672.5,7523.5
2026-01-10 21:53:59.160,-1443.8461538461538,3499.153846153846,3671.3076923076924,5672.615384615385,7524.307692307692
2026-01-10 21:53:59.180,-1481.4423076923076,3538.0576923076924,3672.6153846153848,5672.7307692307695,7525.115384615385
2026-01-10 21:53:59.200,-1519.0384615384617,3576.961538461538,3673.923076923077,5672.846153846154,7525.923076923077
2026-01-10 21:53:59.220,-1556.6346153846155,3615.8653846153848,3675.230769230769,5672.961538461538,7526.7307692307695
2026-01-10 21:53:59.240,-1594.2307692307693,3654.7692307692305,3676.5384615384614,5673.076923076923,7527.538461538462
2026-01-10 21:53:59.260,-1631.826923076923,3693.673076923077,3677.846153846154,5673.192307692308,7528.346153846154
2026-01-10 21:53:59.280,-1669.423076923077,3732.576923076923,3679.153846153846,5673.307692307692,7529.153846153846
2026-01-10 21:53:59.300,-1707.0192307692307,3771.4807692307695,3680.4615384615386,5673.423076923077,7529.961538461538
2026-01-10 21:53:59.320,-1744.6153846153848,3810.3846153846152,3681.769230769231,5673.538461538462,7530.7692307692305
2026-01-10 21:53:59.340,-1782.2115384615386,3849.2884615384614,3683.076923076923,5673.653846153846,7531.576923076923
2026-01-10 21:53:59.360,-1819.8076923076924,3888.1923076923076,3684.3846153846152,5673.7692307692305,7532.384615384615
2026-01-10 21:53:59.380,-1857.4038461538462,3927.096153846154,3685.6923076923076,5673.884615384615,7533.192307692308
2026-01-10 21:53:59.400,-1895.0,3966.0,3687.0,5674.0,7534.0
2026-01-10 21:53:59.420,-1857.2156862745098,3926.470588235294,3685.0392156862745,5674.117647058823,7531.333333333333
2026-01-10 21:53:59.440,-1819.4313725490197,3886.9411764705883,3683.078431372549,5674.235294117647,7528.666666666667
2026-01-10 21:53:59.460,-1781.6470588235295,3847.4117647058824,3681.1176470588234,5674.35294117647,7526.0
2026-01-10 21:53:59.480,-1743.8627450980393,3807.8823529411766,3679.156862745098,5674.470588235294,7523.333333333333
2026-01-10 21:53:59.500,-1706.078431372549,3768.3529411764707,3677.1960784313724,5674.588235294118,7520.666666666667
2026-01-10 21:53:59.520,-1668.2941176470588,3728.823529411765,3675.235294117647,5674.705882352941,7518.0
2026-01-10 21:53:59.540,-1630.5098039215686,3689.2941176470586,3673.274509803922,5674.823529411765,7515.333333333333
2026-01-10 21:53:59.560,-1592.7254901960785,3649.764705882353,3671.3137254901962,5674.941176470588,7512.666666666667
2026-01-10 21:53:59.580,-1554.9411764705883,3610.235294117647,3669.3529411764707,5675.058823529412,7510.0
2026-01-10 21:53:59.600,-1517.1568627450981,3570.705882352941,3667.392156862745,5675.176470588235,7507.333333333333
2026-01-10 21:53:59.620,-1479.372549019608,3531.176470588235,3665.4313725490197,5675.294117647059,7504.666666666667
2026-01-10 21:53:59.640,-1441.5882352941176,3491.6470588235293,3663.470588235294,5675.411764705882,7502.0
2026-01-10 21:53:59.660,-1403.8039215686276,3452.1176470588234,3661.5098039215686,5675.529411764706,7499.333333333333
2026-01-10 21:53:59.680,-1366.0196078431372,3412.5882352941176,3659.549019607843,5675.64705882353,7496.666666666667
2026-01-10 21:53:59.700,-1328.235294117647,3373.0588235294117,3657.5882352941176,5675.764705882353,7494.0
2026-01-10 21:53:59.720,-1290.450980392157,3333.529411764706,3655.627450980392,5675.882352941177,7491.333333333333
2026-01-10 21:53:59.740,-1252.6666666666667,3294.0,3653.6666666666665,5676.0,7488.666666666667
2026-01-10 21:53:59.760,-1214.8823529411766,3254.470588235294,3651.705882352941,5676.117647058823,7486.0
2026-01-10 21:53:59.780,-1177.0980392156862,3214.9411764705883,3649.745098039216,5676.235294117647,7483.333333333333
2026-01-10 21:53:59.800,-1139.3137254901962,3175.4117647058824,3647.7843137254904,5676.35294117647,7480.666666666667
2026-01-10 21:53:59.820,-1101.5294117647059,3135.8823529411766,3645.823529411765,5676.470588235294,7478.0
2026-01-10 21:53:59.840,-1063.7450980392157,3096.3529411764703,3643.8627450980393,5676.588235294118,7475.333333333333
2026-01-10 21:53:59.860,-1025.9607843137255,3056.823529411765,3641.901960784314,5676.705882352941,7472.666666666667
2026-01-10 21:53:59.880,-988.1764705882354,3017.2941176470586,3639.9411764705883,5676.823529411765,7470.0
2026-01-10 21:53:59.900,-950.3921568627452,2977.764705882353,3637.9803921568628,5676.941176470588,7467.333333333333
2026-01-10 21:53:59.920,-912.607843137255,2938.235294117647,3636.0196078431372,5677.058823529412,7464.666666666667
2026-01-10 21:53:59.940,-874.8235294117648,2898.7058823529414,3634.0588235294117,5677.176470588235,7462.0
2026-01-10 21:53:59.960,-837.0392156862745,2859.176470588235,3632.098039215686,5677.294117647059,7459.333333333333
2026-01-10 21:53:59.980,-799.2549019607843,2819.6470588235293,3630.1372549019607,5677.411764705882,7456.666666666667
2026-01-10 21:54:00.000,-761.4705882352941,2780.1176470588234,3628.176470588235,5677.529411764706,7454.0
2026-01-10 21:54:00.020,-723.686274509804,2740.5882352941176,3626.2156862745096,5677.64705882353,7451.333333333333
2026-01-10 21:54:00.040,-685.9019607843138,2701.0588235294117,3624.2549019607845,5677.764705882353,7448.666666666667
2026-01-10 21:54:00.060,-648.1176470588236,2661.529411764706,3622.294117647059,5677.882352941177,7446.0
2026-01-10 21:54:00.080,-610.3333333333335,2622.0,3620.3333333333335,5678.0,7443.333333333333
2026-01-10 21:54:00.100,-572.5490196078433,2582.470588235294,3618.372549019608,5678.117647058823,7440.666666666667
2026-01-10 21:54:00.120,-534.7647058823532,2542.9411764705883,3616.4117647058824,5678.235294117647,7438.0
2026-01-10 21:54:00.140,-496.98039215686276,2503.411764705882,3614.450980392157,5678.35294117647,7435.333333333333
2026-01-10 21:54:00.160,-459.1960784313726,2463.8823529411766,3612.4901960784314,5678.470588235294,7432.666666666667
2026-01-10 21:54:00.180,-421.41176470588243,2424.3529411764703,3610.529411764706,5678.588235294118,7430.0
2026-01-10 21:54:00.200,-383.62745098039227,2384.823529411765,3608.5686274509803,5678.705882352941,7427.333333333333
2026-01-10 21:54:00.220,-345.8431372549021,2345.2941176470586,3606.607843137255,5678.823529411765,7424.666666666667
2026-01-10 21:54:00.240,-308.05882352941194,2305.764705882353,3604.6470588235293,5678.941176470588,7422.0
2026-01-10 21:54:00.260,-270.2745098039218,2266.235294117647,3602.6862745098038,5679.058823529412,7419.333333333333
2026-01-10 21:54:00.280,-232.49019607843138,2226.705882352941,3600.725490196078,5679.176470588235,7416.666666666667
2026-01-10 21:54:00.300,-194.70588235294122,2187.176470588235,3598.764705882353,5679.294117647059,7414.0
2026-01-10 21:54:00.320,-156.92156862745105,2147.6470588235293,3596.8039215686276,5679.411764705882,7411.333333333333
2026-01-10 21:54:00.340,-119.13725490196089,2108.1176470588234,3594.843137254902,5679.529411764706,7408.666666666667
2026-01-10 21:54:00.360,-81.35294117647072,2068.5882352941176,3592.8823529411766,5679.64705882353,7406.0
2026-01-10 21:54:00.380,-43.56862745098056,2029.0588235294117,3590.921568627451,5679.764705882353,7403.333333333333
2026-01-10 21:54:00.400,-5.784313725490392,1989.5294117647059,3588.9607843137255,5679.882352941177,7400.666666666667
2026-01-10 21:54:00.420,32.0,1950.0,3587.0,5680.0,7398.0
2026-01-10 21:54:00.440,31.431372549019606,1950.137254901961,3546.529411764706,5680.470588235294,7400.313725490196
2026-01-10 21:54:00.460,30.862745098039216,1950.2745098039215,3506.0588235294117,5680.941176470588,7402.6274509803925
2026-01-10 21:54:00.480,30.294117647058822,1950.4117647058824,3465.5882352941176,5681.411764705882,7404.941176470588
2026-01-10 21:54:00.500,29.725490196078432,1950.549019607843,3425.1176470588234,5681.882352941177,7407.254901960784
2026-01-10 21:54:00.520,29.15686274509804,1950.686274509804,3384.6470588235293,5682.35294117647,7409.568627450981
2026-01-10 21:54:00.540,28.58823529411765,1950.8235294117646,3344.176470588235,5682.823529411765,7411.882352941177
2026-01-10 21:54:00.560,28.019607843137255,1950.9607843137255,3303.7058823529414,5683.294117647059,7414.196078431372
2026-01-10 21:54:00.580,27.450980392156865,1951.0980392156862,3263.235294117647,5683.764705882353,7416.509803921569
2026-01-10 21:54:00.600,26.88235294117647,1951.235294117647,3222.764705882353,5684.235294117647,7418.823529411765
2026-01-10 21:54:00.620,26.313725490196077,1951.3725490196077,3182.294117647059,5684.705882352941,7421.137254901961
2026-01-10 21:54:00.640,25.745098039215687,1951.5098039215686,3141.823529411765,5685.176470588235,7423.450980392156
2026-01-10 21:54:00.660,25.176470588235293,1951.6470588235295,3101.3529411764707,5685.64705882353,7425.764705882353
2026-01-10 21:54:00.680,24.607843137254903,1951.7843137254902,3060.8823529411766,5686.117647058823,7428.078431372549
2026-01-10 21:54:00.700,24.03921568627451,1951.921568627451,3020.4117647058824,5686.588235294118,7430.392156862745
2026-01-10 21:54:00.720,23.470588235294116,1952.0588235294117,2979.9411764705883,5687.058823529412,7432.705882352941
2026-01-10 21:54:00.740,22.901960784313726,1952.1960784313726,2939.470588235294,5687.529411764706,7435.019607843137
2026-01-10 21:54:00.760,22.333333333333336,1952.3333333333333,2899.0,5688.0,7437.333333333333
2026-01-10 21:54:00.780,21.764705882352942,1952.4705882352941,2858.529411764706,5688.470588235294,7439.64705882353
2026-01-10 21:54:00.800,21.19607843137255,1952.6078431372548,2818.0588235294117,5688.941176470588,7441.9607843137255
2026-01-10 21:54:00.820,20.627450980392158,1952.7450980392157,2777.5882352941176,5689.411764705882,7444.274509803921
2026-01-10 21:54:00.840,20.058823529411764,1952.8823529411766,2737.1176470588234,5689.882352941177,7446.588235294118
2026-01-10 21:54:00.860,19.490196078431374,1953.0196078431372,2696.6470588235297,5690.35294117647,7448.901960784314
2026-01-10 21:54:00.880,18.92156862745098,1953.1568627450981,2656.176470588235,5690.823529411765,7451.21568627451
2026-01-10 21:54:00.900,18.352941176470587,1953.2941176470588,2615.7058823529414,5691.294117647059,7453.529411764706
2026-01-10 21:54:00.920,17.784313725490197,1953.4313725490197,2575.235294117647,5691.764705882353,7455.843137254902
2026-01-10 21:54:00.940,17.215686274509807,1953.5686274509803,2534.764705882353,5692.235294117647,7458.156862745098
2026-01-10 21:54:00.960,16.647058823529413,1953.7058823529412,2494.2941176470586,5692.705882352941,7460.470588235294
2026-01-10 21:54:00.980,16.07843137254902,1953.8431372549019,2453.823529411765,5693.176470588235,7462.78431372549
2026-01-10 21:54:01.000,15.50980392156863,1953.9803921568628,2413.3529411764707,5693.64705882353,7465.098039215686
2026-01-10 21:54:01.020,14.941176470588236,1954.1176470588234,2372.8823529411766,5694.117647058823,7467.411764705882
2026-01-10 21:54:01.040,14.372549019607845,1954.2549019607843,2332.4117647058824,5694.588235294118,7469.725490196079
2026-01-10 21:54:01.060,13.803921568627452,1954.3921568627452,2291.9411764705883,5695.058823529412,7472.0392156862745
2026-01-10 21:54:01.080,13.235294117647058,1954.5294117647059,2251.470588235294,5695.529411764706,7474.35294117647
2026-01-10 21:54:01.100,12.666666666666668,1954.6666666666667,2211.0,5696.0,7476.666666666667
2026-01-10 21:54:01.120,12.098039215686274,1954.8039215686274,2170.529411764706,5696.470588235294,7478.980392156863
2026-01-10 21:54:01.140,11.529411764705884,1954.9411764705883,2130.0588235294117,5696.941176470588,7481.294117647059
2026-01-10 21:54:01.160,10.96078431372549,1955.078431372549,2089.588235294118,5697.411764705882,7483.607843137255
2026-01-10 21:54:01.180,10.3921568627451,1955.2156862745098,2049.1176470588234,5697.882352941177,7485.921568627451
2026-01-10 21:54:01.200,9.823529411764707,1955.3529411764705,2008.6470588235295,5698.35294117647,7488.235294117647
2026-01-10 21:54:01.220,9.254901960784316,1955.4901960784314,1968.1764705882354,5698.823529411765,7490.549019607844
2026-01-10 21:54:01.240,8.686274509803923,1955.6274509803923,1927.7058823529412,5699.294117647059,7492.862745098039
2026-01-10 21:54:01.260,8.117647058823529,1955.764705882353,1887.235294117647,5699.764705882353,7495.176470588235
2026-01-10 21:54:01.280,7.549019607843139,1955.9019607843138,1846.764705882353,5700.235294117647,7497.490196078432
2026-01-10 21:54:01.300,6.980392156862745,1956.0392156862745,1806.294117647059,5700.705882352941,7499.803921568628
2026-01-10 21:54:01.320,6.411764705882355,1956.1764705882354,1765.8235294117649,5701.176470588235,7502.117647058823
2026-01-10 21:54:01.340,5.843137254901961,1956.313725490196,1725.3529411764707,5701.64705882353,7504.431372549019
2026-01-10 21:54:01.360,5.274509803921571,1956.450980392157,1684.8823529411766,5702.117647058823,7506.745098039216
2026-01-10 21:54:01.380,4.7058823529411775,1956.5882352941176,1644.4117647058824,5702.588235294118,7509.058823529412
2026-01-10 21:54:01.400,4.137254901960784,1956.7254901960785,1603.9411764705883,5703.058823529412,7511.3725490196075
2026-01-10 21:54:01.420,3.5686274509803937,1956.862745098039,1563.4705882352941,5703.529411764706,7513.686274509804
2026-01-10 21:54:01.440,3.0,1957.0,1523.0,5704.0,7516.0
2026-01-10 21:54:01.460,3.1176470588235294,1995.764705882353,1522.8823529411766,5704.725490196079,7516.6274509803925
2026-01-10 21:54:01.480,3.235294117647059,2034.5294117647059,1522.764705882353,5705.450980392156,7517.254901960784
2026-01-10 21:54:01.500,3.3529411764705883,2073.294117647059,1522.6470588235295,5706.176470588235,7517.882352941177
2026-01-10 21:54:01.520,3.4705882352941178,2112.0588235294117,1522.5294117647059,5706.901960784314,7518.509803921569
2026-01-10 21:54:01.540,3.588235294117647,2150.823529411765,1522.4117647058824,5707.6274509803925,7519.137254901961
2026-01-10 21:54:01.560,3.7058823529411766,2189.5882352941176,1522.2941176470588,5708.35294117647,7519.764705882353
2026-01-10 21:54:01.580,3.8235294117647056,2228.3529411764707,1522.1764705882354,5709.078431372549,7520.392156862745
2026-01-10 21:54:01.600,3.9411764705882355,2267.1176470588234,1522.0588235294117,5709.803921568628,7521.019607843137
2026-01-10 21:54:01.620,4.0588235294117645,2305.8823529411766,1521.9411764705883,5710.529411764706,7521.64705882353
2026-01-10 21:54:01.640,4.176470588235294,2344.6470588235293,1521.8235294117646,5711.254901960784,7522.274509803921
2026-01-10 21:54:01.660,4.294117647058823,2383.4117647058824,1521.7058823529412,5711.980392156863,7522.901960784314
2026-01-10 21:54:01.680,4.411764705882353,2422.176470588235,1521.5882352941176,5712.705882352941,7523.529411764706
2026-01-10 21:54:01.700,4.529411764705882,2460.9411764705883,1521.4705882352941,5713.431372549019,7524.156862745098
2026-01-10 21:54:01.720,4.647058823529411,2499.7058823529414,1521.3529411764705,5714.156862745098,7524.78431372549
2026-01-10 21:54:01.740,4.764705882352941,2538.470588235294,1521.235294117647,5714.882352941177,7525.411764705882
2026-01-10 21:54:01.760,4.882352941176471,2577.235294117647,1521.1176470588234,5715.607843137255,7526.0392156862745
2026-01-10 21:54:01.780,5.0,2616.0,1521.0,5716.333333333333,7526.666666666667
2026-01-10 21:54:01.800,5.117647058823529,2654.764705882353,1520.8823529411766,5717.058823529412,7527.294117647059
2026-01-10 21:54:01.820,5.235294117647059,2693.529411764706,1520.764705882353,5717.78431372549,7527.921568627451
2026-01-10 21:54:01.840,5.352941176470589,2732.2941176470586,1520.6470588235295,5718.509803921569,7528.549019607844
2026-01-10 21:54:01.860,5.470588235294118,2771.0588235294117,1520.5294117647059,5719.235294117647,7529.176470588235
2026-01-10 21:54:01.880,5.588235294117647,2809.823529411765,1520.4117647058824,5719.9607843137255,7529.803921568628
2026-01-10 21:54:01.900,5.705882352941177,2848.5882352941176,1520.2941176470588,5720.686274509804,7530.431372549019
2026-01-10 21:54:01.920,5.823529411764706,2887.3529411764707,1520.1764705882354,5721.411764705882,7531.058823529412
2026-01-10 21:54:01.940,5.9411764705882355,2926.1176470588234,1520.0588235294117,5722.137254901961,7531.686274509804
2026-01-10 21:54:01.960,6.0588235294117645,2964.8823529411766,1519.9411764705883,5722.862745098039,7532.313725490196
2026-01-10 21:54:01.980,6.1764705882352935,3003.6470588235297,1519.8235294117646,5723.588235294118,7532.941176470588
2026-01-10 21:54:02.000,6.294117647058823,3042.4117647058824,1519.7058823529412,5724.313725490196,7533.568627450981
2026-01-10 21:54:02.020,6.411764705882353,3081.176470588235,1519.5882352941176,5725.0392156862745,7534.196078431372
2026-01-10 21:54:02.040,6.529411764705882,3119.9411764705883,1519.4705882352941,5725.764705882353,7534.823529411765
2026-01-10 21:54:02.060,6.647058823529411,3158.7058823529414,1519.3529411764705,5726.490196078431,7535.450980392156
2026-01-10 21:54:02.080,6.764705882352941,3197.470588235294,1519.235294117647,5727.21568627451,7536.078431372549
2026-01-10 21:54:02.100,6.882352941176471,3236.235294117647,1519.1176470588234,5727.941176470588,7536.705882352941
2026-01-10 21:54:02.120,7.0,3275.0,1519.0,5728.666666666667,7537.333333333333
2026-01-10 21:54:02.140,7.117647058823529,3313.764705882353,1518.8823529411766,5729.392156862745,7537.9607843137255
2026-01-10 21:54:02.160,7.235294117647059,3352.529411764706,1518.764705882353,5730.117647058823,7538.588235294118
2026-01-10 21:54:02.180,7.352941176470588,3391.2941176470586,1518.6470588235295,5730.843137254902,7539.21568627451
2026-01-10 21:54:02.200,7.470588235294118,3430.0588235294117,1518.5294117647059,5731.568627450981,7539.843137254902
2026-01-10 21:54:02.220,7.588235294117647,3468.823529411765,1518.4117647058824,5732.294117647059,7540.470588235294
2026-01-10 21:54:02.240,7.705882352941177,3507.5882352941176,1518.2941176470588,5733.019607843137,7541.098039215686
2026-01-10 21:54:02.260,7.823529411764706,3546.3529411764707,1518.1764705882354,5733.745098039216,7541.725490196079
2026-01-10 21:54:02.280,7.9411764705882355,3585.1176470588234,1518.0588235294117,5734.470588235294,7542.35294117647
2026-01-10 21:54:02.300,8.058823529411764,3623.8823529411766,1517.9411764705883,5735.196078431372,7542.980392156863
2026-01-10 21:54:02.320,8.176470588235293,3662.6470588235297,1517.8235294117646,5735.921568627451,7543.607843137255
2026-01-10 21:54:02.340,8.294117647058822,3701.4117647058824,1517.7058823529412,5736.64705882353,7544.235294117647
2026-01-10 21:54:02.360,8.411764705882353,3740.176470588235,1517.5882352941176,5737.3725490196075,7544.862745098039
2026-01-10 21:54:02.380,8.529411764705882,3778.9411764705883,1517.4705882352941,5738.098039215686,7545.490196078431
2026-01-10 21:54:02.400,8.647058823529411,3817.7058823529414,1517.3529411764705,5738.823529411765,7546.117647058823
2026-01-10 21:54:02.420,8.764705882352942,3856.470588235294,1517.235294117647,5739.549019607844,7546.745098039216
2026-01-10 21:54:02.440,8.882352941176471,3895.235294117647,1517.1176470588234,5740.274509803921,7547.3725490196075
2026-01-10 21:54:02.460,9.0,3934.0,1517.0,5741.0,7548.0
2026-01-10 21:54:02.480,10.42,3894.08,1514.98,5739.8,7547.155555555555
2026-01-10 21:54:02.500,11.84,3854.16,1512.96,5738.6,7546.311111111111
2026-01-10 21:54:02.520,13.26,3814.24,1510.94,5737.4,7545.466666666666
2026-01-10 21:54:02.540,14.68,3774.32,1508.92,5736.2,7544.622222222222
2026-01-10 21:54:02.560,16.1,3734.4,1506.9,5735.0,7543.777777777777
2026-01-10 21:54:02.580,17.52,3694.48,1504.88,5733.8,7542.933333333333
2026-01-10 21:54:02.600,18.939999999999998,3654.56,1502.86,5732.6,7542.0888888888885
2026-01-10 21:54:02.620,20.36,3614.64,1500.84,5731.4,7541.2444444444445
2026-01-10 21:54:02.640,21.78,3574.72,1498.82,5730.2,7540.4
2026-01-10 21:54:02.660,23.2,3534.8,1496.8,5729.0,7539.555555555556
2026-01-10 21:54:02.680,24.619999999999997,3494.88,1494.78,5727.8,7538.711111111111
2026-01-10 21:54:02.700,26.04,3454.96,1492.76,5726.6,7537.866666666667
2026-01-10 21:54:02.720,27.46,3415.04,1490.74,5725.4,7537.022222222222
2026-01-10 21:54:02.740,28.88,3375.12,1488.72,5724.2,7536.177777777778
2026-01-10 21:54:02.760,30.299999999999997,3335.2,1486.7,5723.0,7535.333333333333
2026-01-10 21:54:02.780,31.72,3295.2799999999997,1484.68,5721.8,7534.488888888889
2026-01-10 21:54:02.800,33.14,3255.36,1482.66,5720.6,7533.644444444444
2026-01-10 21:54:02.820,34.56,3215.44,1480.64,5719.4,7532.8
2026-01-10 21:54:02.840,35.98,3175.52,1478.62,5718.2,7531.955555555555
2026-01-10 21:54:02.860,37.4,3135.6,1476.6,5717.0,7531.111111111111
2026-01-10 21:54:02.880,38.82,3095.68,1474.58,5715.8,7530.266666666666
2026-01-10 21:54:02.900,40.239999999999995,3055.76,1472.56,5714.6,7529.422222222222
2026-01-10 21:54:02.920,41.66,3015.84,1470.54,5713.4,7528.577777777778
2026-01-10 21:54:02.940,43.08,2975.92,1468.52,5712.2,7527.733333333334
2026-01-10 21:54:02.960,44.5,2936.0,1466.5,5711.0,7526.888888888889
2026-01-10 21:54:02.980,45.92,2896.08,1464.48,5709.8,7526.044444444445
2026-01-10 21:54:03.000,47.339999999999996,2856.16,1462.46,5708.6,7525.2
2026-01-10 21:54:03.020,48.76,2816.24,1460.44,5707.4,7524.355555555556
2026-01-10 21:54:03.040,50.18,2776.3199999999997,1458.42,5706.2,7523.511111111111
2026-01-10 21:54:03.060,51.599999999999994,2736.3999999999996,1456.4,5705.0,7522.666666666667
2026-01-10 21:54:03.080,53.019999999999996,2696.48,1454.38,5703.8,7521.822222222222
2026-01-10 21:54:03.100,54.44,2656.56,1452.36,5702.6,7520.977777777778
2026-01-10 21:54:03.120,55.86,2616.64,1450.34,5701.4,7520.133333333333
2026-01-10 21:54:03.140,57.28,2576.7200000000003,1448.32,5700.2,7519.288888888889
2026-01-10 21:54:03.160,58.699999999999996,2536.8,1446.3,5699.0,7518.444444444444
2026-01-10 21:54:03.180,60.12,2496.88,1444.28,5697.8,7517.6
2026-01-10 21:54:03.200,61.54,2456.96,1442.26,5696.6,7516.7555555555555
2026-01-10 21:54:03.220,62.959999999999994,2417.04,1440.24,5695.4,7515.9111111111115
2026-01-10 21:54:03.240,64.38,2377.12,1438.22,5694.2,7515.066666666667
2026-01-10 21:54:03.260,65.8,2337.2,1436.2,5693.0,7514.222222222223
2026-01-10 21:54:03.280,67.22,2297.2799999999997,1434.18,5691.8,7513.377777777778
2026-01-10 21:54:03.300,68.64,2257.3599999999997,1432.16,5690.6,7512.533333333334
2026-01-10 21:54:03.320,70.06,2217.4399999999996,1430.14,5689.4,7511.688888888889
2026-01-10 21:54:03.340,71.47999999999999,2177.52,1428.12,5688.2,7510.844444444445
2026-01-10 21:54:03.360,72.9,2137.6,1426.1,5687.0,7510.0
2026-01-10 21:54:03.380,74.32,2097.68,1424.08,5685.8,7509.92
2026-01-10 21:54:03.400,75.74,2057.76,1422.06,5684.6,7509.84
2026-01-10 21:54:03.420,77.16,2017.84,1420.04,5683.4,7509.76
2026-01-10 21:54:03.440,78.58,1977.9199999999998,1418.02,5682.2,7509.68
2026-01-10 21:54:03.460,80.0,1938.0,1416.0,5681.0,7509.6
2026-01-10 21:54:03.480,79.24444444444444,1937.9555555555555,1464.6,5680.933333333333,7509.52
2026-01-10 21:54:03.500,78.4888888888889,1937.911111111111,1513.2,5680.866666666667,7509.44
2026-01-10 21:54:03.520,77.73333333333333,1937.8666666666666,1561.8,5680.8,7509.36
2026-01-10 21:54:03.540,76.97777777777777,1937.8222222222223,1610.4,5680.733333333334,7509.28
2026-01-10 21:54:03.560,76.22222222222223,1937.7777777777778,1659.0,5680.666666666667,7509.2
2026-01-10 21:54:03.580,75.46666666666667,1937.7333333333333,1707.6,5680.6,7509.12
2026-01-10 21:54:03.600,74.71111111111111,1937.6888888888889,1756.2,5680.533333333334,7509.04
2026-01-10 21:54:03.620,73.95555555555555,1937.6444444444444,1804.8,5680.466666666666,7508.96
2026-01-10 21:54:03.640,73.2,1937.6,1853.4,5680.4,7508.88
2026-01-10 21:54:03.660,72.44444444444444,1937.5555555555557,1902.0,5680.333333333333,7508.8
2026-01-10 21:54:03.680,71.6888888888889,1937.5111111111112,1950.6,5680.266666666666,7508.72
2026-01-10 21:54:03.700,70.93333333333334,1937.4666666666667,1999.2,5680.2,7508.64
2026-01-10 21:54:03.720,70.17777777777778,1937.4222222222222,2047.8000000000002,5680.133333333333,7508.56
2026-01-10 21:54:03.740,69.42222222222222,1937.3777777777777,2096.4,5680.066666666667,7508.48
2026-01-10 21:54:03.760,68.66666666666667,1937.3333333333333,2145.0,5680.0,7508.4
2026-01-10 21:54:03.780,67.91111111111111,1937.2888888888888,2193.6,5679.933333333333,7508.32
2026-01-10 21:54:03.800,67.15555555555555,1937.2444444444445,2242.2,5679.866666666667,7508.24
2026-01-10 21:54:03.820,66.4,1937.2,2290.8,5679.8,7508.16
2026-01-10 21:54:03.840,65.64444444444445,1937.1555555555556,2339.4,5679.733333333334,7508.08
2026-01-10 21:54:03.860,64.88888888888889,1937.111111111111,2388.0,5679.666666666667,7508.0
2026-01-10 21:54:03.880,64.13333333333333,1937.0666666666666,2436.6,5679.6,7507.92
2026-01-10 21:54:03.900,63.37777777777778,1937.0222222222221,2485.2,5679.533333333334,7507.84
2026-01-10 21:54:03.920,62.62222222222222,1936.9777777777779,2533.8,5679.466666666666,7507.76
2026-01-10 21:54:03.940,61.86666666666667,1936.9333333333334,2582.4,5679.4,7507.68
2026-01-10 21:54:03.960,61.111111111111114,1936.888888888889,2631.0,5679.333333333333,7507.6
2026-01-10 21:54:03.980,60.355555555555554,1936.8444444444444,2679.6000000000004,5679.266666666666,7507.52
2026-01-10 21:54:04.000,59.6,1936.8,2728.2,5679.2,7507.44
2026-01-10 21:54:04.020,58.84444444444445,1936.7555555555555,2776.8,5679.133333333333,7507.36
2026-01-10 21:54:04.040,58.08888888888889,1936.7111111111112,2825.4,5679.066666666667,7507.28
2026-01-10 21:54:04.060,57.333333333333336,1936.6666666666667,2874.0,5679.0,7507.2
2026-01-10 21:54:04.080,56.57777777777778,1936.6222222222223,2922.6000000000004,5678.933333333333,7507.12
2026-01-10 21:54:04.100,55.82222222222222,1936.5777777777778,2971.2,5678.866666666667,7507.04
2026-01-10 21:54:04.120,55.06666666666666,1936.5333333333333,3019.8,5678.8,7506.96
2026-01-10 21:54:04.140,54.31111111111111,1936.4888888888888,3068.4,5678.733333333334,7506.88
2026-01-10 21:54:04.160,53.55555555555556,1936.4444444444443,3117.0,5678.666666666667,7506.8
2026-01-10 21:54:04.180,52.8,1936.4,3165.6000000000004,5678.6,7506.72
2026-01-10 21:54:04.200,52.044444444444444,1936.3555555555556,3214.2,5678.533333333334,7506.64
2026-01-10 21:54:04.220,51.28888888888889,1936.3111111111111,3262.8,5678.466666666666,7506.56
2026-01-10 21:54:04.240,50.53333333333333,1936.2666666666667,3311.4,5678.4,7506.48
2026-01-10 21:54:04.260,49.77777777777778,1936.2222222222222,3360.0,5678.333333333333,7506.4
2026-01-10 21:54:04.280,49.022222222222226,1936.1777777777777,3408.6000000000004,5678.266666666666,7506.32
2026-01-10 21:54:04.300,48.266666666666666,1936.1333333333334,3457.2,5678.2,7506.24
2026-01-10 21:54:04.320,47.51111111111111,1936.088888888889,3505.8,5678.133333333333,7506.16
2026-01-10 21:54:04.340,46.75555555555556,1936.0444444444445,3554.4,5678.066666666667,7506.08
2026-01-10 21:54:04.360,46.0,1936.0,3603.0,5678.0,7506.0
2026-01-10 21:54:04.380,45.431372549019606,1974.3921568627452,3562.0588235294117,5678.549019607844,7506.058823529412
2026-01-10 21:54:04.400,44.86274509803921,2012.7843137254902,3521.1176470588234,5679.098039215686,7506.117647058823
2026-01-10 21:54:04.420,44.294117647058826,2051.176470588235,3480.176470588235,5679.64705882353,7506.176470588235
2026-01-10 21:54:04.440,43.72549019607843,2089.5686274509803,3439.235294117647,5680.196078431372,7506.235294117647
2026-01-10 21:54:04.460,43.15686274509804,2127.9607843137255,3398.294117647059,5680.745098039216,7506.294117647059
2026-01-10 21:54:04.480,42.588235294117645,2166.3529411764707,3357.3529411764707,5681.294117647059,7506.35294117647
2026-01-10 21:54:04.500,42.01960784313725,2204.745098039216,3316.4117647058824,5681.843137254902,7506.411764705882
2026-01-10 21:54:04.520,41.450980392156865,2243.1372549019607,3275.470588235294,5682.392156862745,7506.470588235294
2026-01-10 21:54:04.540,40.88235294117647,2281.529411764706,3234.529411764706,5682.941176470588,7506.529411764706
2026-01-10 21:54:04.560,40.31372549019608,2319.921568627451,3193.5882352941176,5683.490196078431,7506.588235294118
2026-01-10 21:54:04.580,39.745098039215684,2358.3137254901962,3152.6470588235293,5684.0392156862745,7506.64705882353
2026-01-10 21:54:04.600,39.1764705882353,2396.705882352941,3111.7058823529414,5684.588235294118,7506.705882352941
2026-01-10 21:54:04.620,38.6078431372549,2435.098039215686,3070.764705882353,5685.137254901961,7506.764705882353
2026-01-10 21:54:04.640,38.03921568627451,2473.4901960784314,3029.823529411765,5685.686274509804,7506.823529411765
2026-01-10 21:54:04.660,37.470588235294116,2511.8823529411766,2988.8823529411766,5686.235294117647,7506.882352941177
2026-01-10 21:54:04.680,36.90196078431373,2550.2745098039213,2947.9411764705883,5686.78431372549,7506.941176470588
2026-01-10 21:54:04.700,36.333333333333336,2588.6666666666665,2907.0,5687.333333333333,7507.0
2026-01-10 21:54:04.720,35.76470588235294,2627.0588235294117,2866.0588235294117,5687.882352941177,7507.058823529412
2026-01-10 21:54:04.740,35.19607843137255,2665.450980392157,2825.1176470588234,5688.431372549019,7507.117647058823
2026-01-10 21:54:04.760,34.627450980392155,2703.843137254902,2784.176470588235,5688.980392156863,7507.176470588235
2026-01-10 21:54:04.780,34.05882352941177,2742.235294117647,2743.235294117647,5689.529411764706,7507.235294117647
2026-01-10 21:54:04.800,33.490196078431374,2780.627450980392,2702.294117647059,5690.078431372549,7507.294117647059
2026-01-10 21:54:04.820,32.92156862745098,2819.0196078431372,2661.3529411764707,5690.6274509803925,7507.35294117647
2026-01-10 21:54:04.840,32.35294117647059,2857.4117647058824,2620.4117647058824,5691.176470588235,7507.411764705882
2026-01-10 21:54:04.860,31.784313725490197,2895.8039215686276,2579.470588235294,5691.725490196079,7507.470588235294
2026-01-10 21:54:04.880,31.215686274509807,2934.1960784313724,2538.529411764706,5692.274509803921,7507.529411764706
2026-01-10 21:54:04.900,30.647058823529413,2972.5882352941176,2497.588235294118,5692.823529411765,7507.588235294118
2026-01-10 21:54:04.920,30.07843137254902,3010.9803921568628,2456.6470588235297,5693.3725490196075,7507.64705882353
2026-01-10 21:54:04.940,29.50980392156863,3049.3725490196075,2415.7058823529414,5693.921568627451,7507.705882352941
2026-01-10 21:54:04.960,28.941176470588236,3087.764705882353,2374.764705882353,5694.470588235294,7507.764705882353
2026-01-10 21:54:04.980,28.372549019607845,3126.156862745098,2333.823529411765,5695.019607843137,7507.823529411765
2026-01-10 21:54:05.000,27.80392156862745,3164.549019607843,2292.8823529411766,5695.568627450981,7507.882352941177
2026-01-10 21:54:05.020,27.235294117647058,3202.9411764705883,2251.9411764705883,5696.117647058823,7507.941176470588
2026-01-10 21:54:05.040,26.666666666666668,3241.333333333333,2211.0,5696.666666666667,7508.0
2026-01-10 21:54:05.060,26.098039215686274,3279.7254901960787,2170.0588235294117,5697.21568627451,7508.058823529412
2026-01-10 21:54:05.080,25.529411764705884,3318.1176470588234,2129.1176470588234,5697.764705882353,7508.117647058823
2026-01-10 21:54:05.100,24.96078431372549,3356.5098039215686,2088.176470588235,5698.313725490196,7508.176470588235
2026-01-10 21:54:05.120,24.3921568627451,3394.901960784314,2047.2352941176473,5698.862745098039,7508.235294117647
2026-01-10 21:54:05.140,23.823529411764707,3433.2941176470586,2006.294117647059,5699.411764705882,7508.294117647059
2026-01-10 21:54:05.160,23.254901960784316,3471.6862745098038,1965.3529411764707,5699.9607843137255,7508.35294117647
2026-01-10 21:54:05.180,22.686274509803923,3510.078431372549,1924.4117647058824,5700.509803921569,7508.411764705882
2026-01-10 21:54:05.200,22.11764705882353,3548.470588235294,1883.4705882352941,5701.058823529412,7508.470588235294
2026-01-10 21:54:05.220,21.54901960784314,3586.8627450980393,1842.529411764706,5701.607843137255,7508.529411764706
2026-01-10 21:54:05.240,20.980392156862745,3625.254901960784,1801.5882352941178,5702.156862745098,7508.588235294118
2026-01-10 21:54:05.260,20.411764705882355,3663.6470588235293,1760.6470588235295,5702.705882352941,7508.64705882353
2026-01-10 21:54:05.280,19.84313725490196,3702.0392156862745,1719.7058823529414,5703.254901960784,7508.705882352941
2026-01-10 21:54:05.300,19.27450980392157,3740.431372549019,1678.7647058823532,5703.803921568628,7508.764705882353
2026-01-10 21:54:05.320,18.705882352941178,3778.823529411765,1637.8235294117649,5704.35294117647,7508.823529411765
2026-01-10 21:54:05.340,18.137254901960784,3817.2156862745096,1596.8823529411766,5704.901960784314,7508.882352941177
2026-01-10 21:54:05.360,17.568627450980394,3855.607843137255,1555.9411764705883,5705.450980392156,7508.941176470588
2026-01-10 21:54:05.380,17.0,3894.0,1515.0,5706.0,7509.0
2026-01-10 21:54:05.400,90.18,3894.64,1558.3,5703.98,7502.86
2026-01-10 21:54:05.420,163.36,3895.28,1601.6,5701.96,7496.72
2026-01-10 21:54:05.440,236.54000000000002,3895.92,1644.9,5699.94,7490.58
2026-01-10 21:54:05.460,309.72,3896.56,1688.2,5697.92,7484.44
2026-01-10 21:54:05.480,382.90000000000003,3897.2,1731.5,5695.9,7478.3
2026-01-10 21:54:05.500,456.08000000000004,3897.84,1774.8,5693.88,7472.16
2026-01-10 21:54:05.520,529.26,3898.48,1818.1,5691.86,7466.02
2026-01-10 21:54:05.540,602.44,3899.12,1861.4,5689.84,7459.88
2026-01-10 21:54:05.560,675.6200000000001,3899.76,1904.7,5687.82,7453.74
2026-01-10 21:54:05.580,748.8000000000001,3900.4,1948.0,5685.8,7447.6
2026-01-10 21:54:05.600,821.98,3901.04,1991.3,5683.78,7441.46
2026-01-10 21:54:05.620,895.1600000000001,3901.68,2034.6,5681.76,7435.32
2026-01-10 21:54:05.640,968.3400000000001,3902.32,2077.9,5679.74,7429.18
2026-01-10 21:54:05.660,1041.52,3902.96,2121.2,5677.72,7423.04
2026-01-10 21:54:05.680,1114.7,3903.6,2164.5,5675.7,7416.9
2026-01-10 21:54:05.700,1187.88,3904.24,2207.8,5673.68,7410.76
2026-01-10 21:54:05.720,1261.0600000000002,3904.88,2251.1,5671.66,7404.62
2026-01-10 21:54:05.740,1334.2400000000002,3905.52,2294.4,5669.64,7398.48
2026-01-10 21:54:05.760,1407.42,3906.16,2337.7,5667.62,7392.34
2026-01-10 21:54:05.780,1480.6000000000001,3906.8,2381.0,5665.6,7386.2
2026-01-10 21:54:05.800,1553.7800000000002,3907.44,2424.3,5663.58,7380.06
2026-01-10 21:54:05.820,1626.96,3908.08,2467.6,5661.56,7373.92
2026-01-10 21:54:05.840,1700.14,3908.72,2510.9,5659.54,7367.78
2026-01-10 21:54:05.860,1773.3200000000002,3909.36,2554.2,5657.52,7361.64
2026-01-10 21:54:05.880,1846.5000000000002,3910.0,2597.5,5655.5,7355.5
2026-01-10 21:54:05.900,1919.6800000000003,3910.64,2640.8,5653.48,7349.36
2026-01-10 21:54:05.920,1992.8600000000001,3911.28,2684.1,5651.46,7343.22
2026-01-10 21:54:05.940,2066.04,3911.92,2727.3999999999996,5649.44,7337.08
2026-01-10 21:54:05.960,2139.2200000000003,3912.56,2770.7,5647.42,7330.94
2026-01-10 21:54:05.980,2212.4,3913.2,2814.0,5645.4,7324.8
2026-01-10 21:54:06.000,2285.5800000000004,3913.84,2857.3,5643.38,7318.66
2026-01-10 21:54:06.020,2358.76,3914.48,2900.6,5641.36,7312.52
2026-01-10 21:54:06.040,2431.94,3915.12,2943.8999999999996,5639.34,7306.38
2026-01-10 21:54:06.060,2505.1200000000003,3915.76,2987.2,5637.32,7300.24
2026-01-10 21:54:06.080,2578.3,3916.4,3030.5,5635.3,7294.1
2026-01-10 21:54:06.100,2651.4800000000005,3917.04,3073.8,5633.28,7287.96
2026-01-10 21:54:06.120,2724.6600000000003,3917.68,3117.1,5631.26,7281.82
2026-01-10 21:54:06.140,2797.84,3918.32,3160.3999999999996,5629.24,7275.68
2026-01-10 21:54:06.160,2871.0200000000004,3918.96,3203.7,5627.22,7269.54
2026-01-10 21:54:06.180,2944.2000000000003,3919.6,3247.0,5625.2,7263.4
2026-01-10 21:54:06.200,3017.38,3920.24,3290.3,5623.18,7257.26
2026-01-10 21:54:06.220,3090.5600000000004,3920.88,3333.6,5621.16,7251.12
2026-01-10 21:54:06.240,3163.7400000000002,3921.52,3376.8999999999996,5619.14,7244.98
2026-01-10 21:54:06.260,3236.92,3922.16,3420.2,5617.12,7238.84
2026-01-10 21:54:06.280,3310.1000000000004,3922.8,3463.5,5615.1,7232.7
2026-01-10 21:54:06.300,3383.28,3923.44,3506.8,5613.08,7226.56
2026-01-10 21:54:06.320,3456.4600000000005,3924.08,3550.1,5611.06,7220.42
2026-01-10 21:54:06.340,3529.6400000000003,3924.72,3593.3999999999996,5609.04,7214.28
2026-01-10 21:54:06.360,3602.82,3925.36,3636.7,5607.02,7208.14
2026-01-10 21:54:06.380,3676.0,3926.0,3680.0,5605.0,7202.0
2026-01-10 21:54:06.400,3674.7419354838707,3893.9032258064517,3648.935483870968,5607.1612903225805,7202.980392156863
2026-01-10 21:54:06.420,3673.483870967742,3861.8064516129034,3617.8709677419356,5609.322580645161,7203.9607843137255
2026-01-10 21:54:06.440,3672.2258064516127,3829.7096774193546,3586.8064516129034,5611.4838709677415,7204.941176470588
2026-01-10 21:54:06.460,3670.967741935484,3797.6129032258063,3555.7419354838707,5613.645161290323,7205.921568627451
2026-01-10 21:54:06.480,3669.7096774193546,3765.516129032258,3524.6774193548385,5615.806451612903,7206.901960784314
2026-01-10 21:54:06.500,3668.451612903226,3733.4193548387098,3493.6129032258063,5617.967741935484,7207.882352941177
2026-01-10 21:54:06.520,3667.1935483870966,3701.3225806451615,3462.548387096774,5620.129032258064,7208.862745098039
2026-01-10 21:54:06.540,3665.935483870968,3669.2258064516127,3431.483870967742,5622.290322580645,7209.843137254902
2026-01-10 21:54:06.560,3664.6774193548385,3637.1290322580644,3400.4193548387098,5624.451612903225,7210.823529411765
2026-01-10 21:54:06.580,3663.4193548387098,3605.032258064516,3369.3548387096776,5626.612903225807,7211.803921568628
2026-01-10 21:54:06.600,3662.1612903225805,3572.935483870968,3338.290322580645,5628.774193548387,7212.78431372549
2026-01-10 21:54:06.620,3660.9032258064517,3540.8387096774195,3307.2258064516127,5630.935483870968,7213.764705882353
2026-01-10 21:54:06.640,3659.6451612903224,3508.741935483871,3276.1612903225805,5633.096774193548,7214.745098039216
2026-01-10 21:54:06.660,3658.3870967741937,3476.6451612903224,3245.0967741935483,5635.258064516129,7215.725490196079
2026-01-10 21:54:06.680,3657.1290322580644,3444.548387096774,3214.032258064516,5637.419354838709,7216.705882352941
2026-01-10 21:54:06.700,3655.8709677419356,3412.451612903226,3182.967741935484,5639.580645161291,7217.686274509804
2026-01-10 21:54:06.720,3654.6129032258063,3380.3548387096776,3151.9032258064517,5641.741935483871,7218.666666666667
2026-01-10 21:54:06.740,3653.3548387096776,3348.258064516129,3120.8387096774195,5643.903225806452,7219.64705882353
2026-01-10 21:54:06.760,3652.0967741935483,3316.1612903225805,3089.7741935483873,5646.064516129032,7220.6274509803925
2026-01-10 21:54:06.780,3650.8387096774195,3284.064516129032,3058.7096774193546,5648.225806451613,7221.607843137255
2026-01-10 21:54:06.800,3649.5806451612902,3251.967741935484,3027.6451612903224,5650.387096774193,7222.588235294118
2026-01-10 21:54:06.820,3648.3225806451615,3219.8709677419356,2996.5806451612902,5652.548387096775,7223.568627450981
2026-01-10 21:54:06.840,3647.064516129032,3187.7741935483873,2965.516129032258,5654.709677419355,7224.549019607844
2026-01-10 21:54:06.860,3645.8064516129034,3155.677419354839,2934.451612903226,5656.870967741936,7225.529411764706
2026-01-10 21:54:06.880,3644.548387096774,3123.5806451612902,2903.3870967741937,5659.032258064516,7226.509803921569
2026-01-10 21:54:06.900,3643.2903225806454,3091.483870967742,2872.322580645161,5661.193548387097,7227.490196078431
2026-01-10 21:54:06.920,3642.032258064516,3059.3870967741937,2841.258064516129,5663.354838709677,7228.470588235294
2026-01-10 21:54:06.940,3640.7741935483873,3027.2903225806454,2810.1935483870966,5665.5161290322585,7229.450980392156
2026-01-10 21:54:06.960,3639.516129032258,2995.1935483870966,2779.1290322580644,5667.677419354839,7230.431372549019
2026-01-10 21:54:06.980,3638.2580645161293,2963.0967741935483,2748.064516129032,5669.8387096774195,7231.411764705882
2026-01-10 21:54:07.000,3637.0,2931.0,2717.0,5672.0,7232.392156862745
2026-01-10 21:54:07.020,3635.7419354838707,2898.9032258064517,2685.935483870968,5674.1612903225805,7233.3725490196075
2026-01-10 21:54:07.040,3634.483870967742,2866.8064516129034,2654.8709677419356,5676.322580645161,7234.35294117647
2026-01-10 21:54:07.060,3633.2258064516127,2834.709677419355,2623.8064516129034,5678.4838709677415,7235.333333333333
2026-01-10 21:54:07.080,3631.967741935484,2802.612903225807,2592.741935483871,5680.645161290323,7236.313725490196
2026-01-10 21:54:07.100,3630.7096774193546,2770.516129032258,2561.6774193548385,5682.806451612903,7237.294117647059
2026-01-10 21:54:07.120,3629.451612903226,2738.4193548387098,2530.6129032258063,5684.967741935484,7238.274509803921
2026-01-10 21:54:07.140,3628.1935483870966,2706.3225806451615,2499.548387096774,5687.129032258064,7239.254901960784
2026-01-10 21:54:07.160,3626.935483870968,2674.2258064516127,2468.483870967742,5689.290322580645,7240.235294117647
2026-01-10 21:54:07.180,3625.6774193548385,2642.1290322580644,2437.4193548387093,5691.451612903225,7241.21568627451
2026-01-10 21:54:07.200,3624.4193548387098,2610.032258064516,2406.354838709677,5693.612903225807,7242.196078431372
2026-01-10 21:54:07.220,3623.1612903225805,2577.935483870968,2375.290322580645,5695.774193548387,7243.176470588235
2026-01-10 21:54:07.240,3621.9032258064517,2545.8387096774195,2344.2258064516127,5697.935483870968,7244.156862745098
2026-01-10 21:54:07.260,3620.6451612903224,2513.741935483871,2313.1612903225805,5700.096774193548,7245.137254901961
2026-01-10 21:54:07.280,3619.3870967741937,2481.645161290323,2282.0967741935483,5702.258064516129,7246.117647058823
2026-01-10 21:54:07.300,3618.1290322580644,2449.5483870967746,2251.032258064516,5704.419354838709,7247.098039215686
2026-01-10 21:54:07.320,3616.8709677419356,2417.451612903226,2219.967741935484,5706.580645161291,7248.078431372549
2026-01-10 21:54:07.340,3615.6129032258063,2385.3548387096776,2188.9032258064517,5708.741935483871,7249.058823529412
2026-01-10 21:54:07.360,3614.3548387096776,2353.2580645161293,2157.8387096774195,5710.903225806452,7250.0392156862745
2026-01-10 21:54:07.380,3613.0967741935483,2321.1612903225805,2126.7741935483873,5713.064516129032,7251.019607843137
2026-01-10 21:54:07.400,3611.8387096774195,2289.064516129032,2095.7096774193546,5715.225806451613,7252.0
2026-01-10 21:54:07.420,3610.5806451612902,2256.967741935484,2064.6451612903224,5717.387096774193,7251.235294117647
2026-01-10 21:54:07.440,3609.3225806451615,2224.8709677419356,2033.5806451612902,5719.548387096775,7250.470588235294
2026-01-10 21:54:07.460,3608.064516129032,2192.7741935483873,2002.516129032258,5721.709677419355,7249.705882352941
2026-01-10 21:54:07.480,3606.8064516129034,2160.677419354839,1971.4516129032256,5723.870967741936,7248.941176470588
2026-01-10 21:54:07.500,3605.548387096774,2128.5806451612907,1940.3870967741934,5726.032258064516,7248.176470588235
2026-01-10 21:54:07.520,3604.2903225806454,2096.4838709677424,1909.3225806451612,5728.193548387097,7247.411764705882
2026-01-10 21:54:07.540,3603.032258064516,2064.3870967741937,1878.258064516129,5730.354838709677,7246.64705882353
2026-01-10 21:54:07.560,3601.7741935483873,2032.2903225806454,1847.1935483870966,5732.516129032258,7245.882352941177
2026-01-10 21:54:07.580,3600.516129032258,2000.193548387097,1816.1290322580644,5734.677419354839,7245.117647058823
2026-01-10 21:54:07.600,3599.2580645161293,1968.0967741935485,1785.0645161290322,5736.8387096774195,7244.35294117647
2026-01-10 21:54:07.620,3598.0,1936.0,1754.0,5739.0,7243.588235294118
2026-01-10 21:54:07.640,3598.0666666666666,1936.0222222222221,1753.5555555555557,5739.266666666666,7242.823529411765
2026-01-10 21:54:07.660,3598.133333333333,1936.0444444444445,1753.111111111111,5739.533333333334,7242.058823529412
2026-01-10 21:54:07.680,3598.2,1936.0666666666666,1752.6666666666667,5739.8,7241.294117647059
2026-01-10 21:54:07.700,3598.266666666667,1936.088888888889,1752.2222222222222,5740.066666666667,7240.529411764706
2026-01-10 21:54:07.720,3598.3333333333335,1936.111111111111,1751.7777777777778,5740.333333333333,7239.764705882353
2026-01-10 21:54:07.740,3598.4,1936.1333333333334,1751.3333333333333,5740.6,7239.0
2026-01-10 21:54:07.760,3598.4666666666667,1936.1555555555556,1750.888888888889,5740.866666666667,7238.235294117647
2026-01-10 21:54:07.780,3598.5333333333333,1936.1777777777777,1750.4444444444443,5741.133333333333,7237.470588235294
2026-01-10 21:54:07.800,3598.6,1936.2,1750.0,5741.4,7236.705882352941
2026-01-10 21:54:07.820,3598.6666666666665,1936.2222222222222,1749.5555555555557,5741.666666666667,7235.941176470588
2026-01-10 21:54:07.840,3598.733333333333,1936.2444444444445,1749.111111111111,5741.933333333333,7235.176470588235
2026-01-10 21:54:07.860,3598.8,1936.2666666666667,1748.6666666666667,5742.2,7234.411764705882
2026-01-10 21:54:07.880,3598.866666666667,1936.2888888888888,1748.2222222222222,5742.466666666666,7233.64705882353
2026-01-10 21:54:07.900,3598.9333333333334,1936.3111111111111,1747.7777777777778,5742.733333333334,7232.882352941177
2026-01-10 21:54:07.920,3599.0,1936.3333333333333,1747.3333333333333,5743.0,7232.117647058823
2026-01-10 21:54:07.940,3599.0666666666666,1936.3555555555556,1746.888888888889,5743.266666666666,7231.35294117647
2026-01-10 21:54:07.960,3599.133333333333,1936.3777777777777,1746.4444444444443,5743.533333333334,7230.588235294118
2026-01-10 21:54:07.980,3599.2,1936.4,1746.0,5743.8,7229.823529411765
2026-01-10 21:54:08.000,3599.266666666667,1936.4222222222222,1745.5555555555557,5744.066666666667,7229.058823529412
2026-01-10 21:54:08.020,3599.3333333333335,1936.4444444444443,1745.111111111111,5744.333333333333,7228.294117647059
2026-01-10 21:54:08.040,3599.4,1936.4666666666667,1744.6666666666667,5744.6,7227.529411764706
2026-01-10 21:54:08.060,3599.4666666666667,1936.4888888888888,1744.2222222222222,5744.866666666667,7226.764705882353
2026-01-10 21:54:08.080,3599.5333333333333,1936.5111111111112,1743.7777777777778,5745.133333333333,7226.0
2026-01-10 21:54:08.100,3599.6,1936.5333333333333,1743.3333333333333,5745.4,7225.235294117647
2026-01-10 21:54:08.120,3599.6666666666665,1936.5555555555557,1742.888888888889,5745.666666666667,7224.470588235294
2026-01-10 21:54:08.140,3599.733333333333,1936.5777777777778,1742.4444444444443,5745.933333333333,7223.705882352941
2026-01-10 21:54:08.160,3599.8,1936.6,1742.0,5746.2,7222.941176470588
2026-01-10 21:54:08.180,3599.866666666667,1936.6222222222223,1741.5555555555557,5746.466666666666,7222.176470588235
2026-01-10 21:54:08.200,3599.9333333333334,1936.6444444444444,1741.111111111111,5746.733333333334,7221.411764705882
2026-01-10 21:54:08.220,3600.0,1936.6666666666667,1740.6666666666667,5747.0,7220.64705882353
2026-01-10 21:54:08.240,3600.0666666666666,1936.6888888888889,1740.2222222222222,5747.266666666666,7219.882352941177
2026-01-10 21:54:08.260,3600.133333333333,1936.7111111111112,1739.7777777777778,5747.533333333334,7219.117647058823
2026-01-10 21:54:08.280,3600.2,1936.7333333333333,1739.3333333333333,5747.8,7218.35294117647
2026-01-10 21:54:08.300,3600.266666666667,1936.7555555555555,1738.888888888889,5748.066666666667,7217.588235294118
2026-01-10 21:54:08.320,3600.3333333333335,1936.7777777777778,1738.4444444444443,5748.333333333333,7216.823529411765
2026-01-10 21:54:08.340,3600.4,1936.8,1738.0,5748.6,7216.058823529412
2026-01-10 21:54:08.360,3600.4666666666667,1936.8222222222223,1737.5555555555557,5748.866666666667,7215.294117647059
2026-01-10 21:54:08.380,3600.5333333333333,1936.8444444444444,1737.111111111111,5749.133333333333,7214.529411764706
2026-01-10 21:54:08.400,3600.6,1936.8666666666666,1736.6666666666667,5749.4,7213.764705882353
2026-01-10 21:54:08.420,3600.6666666666665,1936.888888888889,1736.2222222222222,5749.666666666667,7213.0
2026-01-10 21:54:08.440,3600.733333333333,1936.911111111111,1735.7777777777778,5749.933333333333,7212.52
2026-01-10 21:54:08.460,3600.8,1936.9333333333334,1735.3333333333333,5750.2,7212.04
2026-01-10 21:54:08.480,3600.866666666667,1936.9555555555555,1734.888888888889,5750.466666666666,7211.56
2026-01-10 21:54:08.500,3600.9333333333334,1936.9777777777779,1734.4444444444443,5750.733333333334,7211.08
2026-01-10 21:54:08.520,3601.0,1937.0,1734.0,5751.0,7210.6
2026-01-10 21:54:08.540,3600.711111111111,1937.0222222222221,1733.9333333333334,5751.044444444445,7210.12
2026-01-10 21:54:08.560,3600.4222222222224,1937.0444444444445,1733.8666666666666,5751.0888888888885,7209.64
2026-01-10 21:54:08.580,3600.133333333333,1937.0666666666666,1733.8,5751.133333333333,7209.16
2026-01-10 21:54:08.600,3599.8444444444444,1937.088888888889,1733.7333333333333,5751.177777777778,7208.68
2026-01-10 21:54:08.620,3599.5555555555557,1937.111111111111,1733.6666666666667,5751.222222222223,7208.2
2026-01-10 21:54:08.640,3599.266666666667,1937.1333333333334,1733.6,5751.266666666666,7207.72
2026-01-10 21:54:08.660,3598.9777777777776,1937.1555555555556,1733.5333333333333,5751.311111111111,7207.24
2026-01-10 21:54:08.680,3598.688888888889,1937.1777777777777,1733.4666666666667,5751.355555555556,7206.76
2026-01-10 21:54:08.700,3598.4,1937.2,1733.4,5751.4,7206.28
2026-01-10 21:54:08.720,3598.1111111111113,1937.2222222222222,1733.3333333333333,5751.444444444444,7205.8
2026-01-10 21:54:08.740,3597.822222222222,1937.2444444444445,1733.2666666666667,5751.488888888889,7205.32
2026-01-10 21:54:08.760,3597.5333333333333,1937.2666666666667,1733.2,5751.533333333334,7204.84
2026-01-10 21:54:08.780,3597.2444444444445,1937.2888888888888,1733.1333333333334,5751.577777777778,7204.36
2026-01-10 21:54:08.800,3596.9555555555557,1937.3111111111111,1733.0666666666666,5751.622222222222,7203.88
2026-01-10 21:54:08.820,3596.6666666666665,1937.3333333333333,1733.0,5751.666666666667,7203.4
2026-01-10 21:54:08.840,3596.3777777777777,1937.3555555555556,1732.9333333333334,5751.711111111111,7202.92
2026-01-10 21:54:08.860,3596.088888888889,1937.3777777777777,1732.8666666666666,5751.7555555555555,7202.44
2026-01-10 21:54:08.880,3595.8,1937.4,1732.8,5751.8,7201.96
2026-01-10 21:54:08.900,3595.511111111111,1937.4222222222222,1732.7333333333333,5751.844444444445,7201.48
2026-01-10 21:54:08.920,3595.222222222222,1937.4444444444443,1732.6666666666667,5751.888888888889,7201.0
2026-01-10 21:54:08.940,3594.9333333333334,1937.4666666666667,1732.6,5751.933333333333,7200.52
2026-01-10 21:54:08.960,3594.6444444444446,1937.4888888888888,1732.5333333333333,5751.977777777778,7200.04
2026-01-10 21:54:08.980,3594.3555555555554,1937.5111111111112,1732.4666666666667,5752.022222222222,7199.56
2026-01-10 21:54:09.000,3594.0666666666666,1937.5333333333333,1732.4,5752.066666666667,7199.08
2026-01-10 21:54:09.020,3593.777777777778,1937.5555555555557,1732.3333333333333,5752.111111111111,7198.6
2026-01-10 21:54:09.040,3593.488888888889,1937.5777777777778,1732.2666666666667,5752.155555555555,7198.12
2026-01-10 21:54:09.060,3593.2,1937.6,1732.2,5752.2,7197.64
2026-01-10 21:54:09.080,3592.911111111111,1937.6222222222223,1732.1333333333334,5752.2444444444445,7197.16
2026-01-10 21:54:09.100,3592.6222222222223,1937.6444444444444,1732.0666666666666,5752.288888888889,7196.68
2026-01-10 21:54:09.120,3592.3333333333335,1937.6666666666667,1732.0,5752.333333333333,7196.2
2026-01-10 21:54:09.140,3592.0444444444443,1937.6888888888889,1731.9333333333334,5752.377777777778,7195.72
2026-01-10 21:54:09.160,3591.7555555555555,1937.7111111111112,1731.8666666666666,5752.422222222222,7195.24
2026-01-10 21:54:09.180,3591.4666666666667,1937.7333333333333,1731.8,5752.466666666666,7194.76
2026-01-10 21:54:09.200,3591.177777777778,1937.7555555555555,1731.7333333333333,5752.511111111111,7194.28
2026-01-10 21:54:09.220,3590.8888888888887,1937.7777777777778,1731.6666666666667,5752.555555555556,7193.8
2026-01-10 21:54:09.240,3590.6,1937.8,1731.6,5752.6,7193.32
2026-01-10 21:54:09.260,3590.311111111111,1937.8222222222223,1731.5333333333333,5752.644444444444,7192.84
2026-01-10 21:54:09.280,3590.0222222222224,1937.8444444444444,1731.4666666666667,5752.688888888889,7192.36
2026-01-10 21:54:09.300,3589.733333333333,1937.8666666666666,1731.4,5752.733333333334,7191.88
2026-01-10 21:54:09.320,3589.4444444444443,1937.888888888889,1731.3333333333333,5752.777777777777,7191.4
2026-01-10 21:54:09.340,3589.1555555555556,1937.911111111111,1731.2666666666667,5752.822222222222,7190.92
2026-01-10 21:54:09.360,3588.866666666667,1937.9333333333334,1731.2,5752.866666666667,7190.44
2026-01-10 21:54:09.380,3588.5777777777776,1937.9555555555555,1731.1333333333334,5752.9111111111115,7189.96
2026-01-10 21:54:09.400,3588.288888888889,1937.9777777777779,1731.0666666666666,5752.955555555555,7189.48
2026-01-10 21:54:09.420,3588.0,1938.0,1731.0,5753.0,7189.0
2026-01-10 21:54:09.440,3588.1960784313724,1937.9607843137255,1730.7058823529412,5753.313725490196,7189.568627450981
2026-01-10 21:54:09.460,3588.392156862745,1937.921568627451,1730.4117647058824,5753.6274509803925,7190.137254901961
2026-01-10 21:54:09.480,3588.5882352941176,1937.8823529411766,1730.1176470588234,5753.941176470588,7190.705882352941
2026-01-10 21:54:09.500,3588.7843137254904,1937.8431372549019,1729.8235294117646,5754.254901960784,7191.274509803921
2026-01-10 21:54:09.520,3588.9803921568628,1937.8039215686274,1729.5294117647059,5754.568627450981,7191.843137254902
2026-01-10 21:54:09.540,3589.176470588235,1937.764705882353,1729.235294117647,5754.882352941177,7192.411764705882
2026-01-10 21:54:09.560,3589.372549019608,1937.7254901960785,1728.9411764705883,5755.196078431372,7192.980392156863
2026-01-10 21:54:09.580,3589.5686274509803,1937.686274509804,1728.6470588235295,5755.509803921569,7193.549019607844
2026-01-10 21:54:09.600,3589.764705882353,1937.6470588235295,1728.3529411764705,5755.823529411765,7194.117647058823
2026-01-10 21:54:09.620,3589.9607843137255,1937.6078431372548,1728.0588235294117,5756.137254901961,7194.686274509804
2026-01-10 21:54:09.640,3590.156862745098,1937.5686274509803,1727.764705882353,5756.450980392156,7195.254901960784
2026-01-10 21:54:09.660,3590.3529411764707,1937.5294117647059,1727.4705882352941,5756.764705882353,7195.823529411765
2026-01-10 21:54:09.680,3590.549019607843,1937.4901960784314,1727.1764705882354,5757.078431372549,7196.392156862745
2026-01-10 21:54:09.700,3590.7450980392155,1937.450980392157,1726.8823529411766,5757.392156862745,7196.9607843137255
2026-01-10 21:54:09.720,3590.9411764705883,1937.4117647058824,1726.5882352941176,5757.705882352941,7197.529411764706
2026-01-10 21:54:09.740,3591.1372549019607,1937.3725490196077,1726.2941176470588,5758.019607843137,7198.098039215686
2026-01-10 21:54:09.760,3591.3333333333335,1937.3333333333333,1726.0,5758.333333333333,7198.666666666667
2026-01-10 21:54:09.780,3591.529411764706,1937.2941176470588,1725.7058823529412,5758.64705882353,7199.235294117647
2026-01-10 21:54:09.800,3591.725490196078,1937.2549019607843,1725.4117647058824,5758.9607843137255,7199.803921568628
2026-01-10 21:54:09.820,3591.921568627451,1937.2156862745098,1725.1176470588234,5759.274509803921,7200.3725490196075
2026-01-10 21:54:09.840,3592.1176470588234,1937.1764705882354,1724.8235294117646,5759.588235294118,7200.941176470588
2026-01-10 21:54:09.860,3592.3137254901962,1937.137254901961,1724.5294117647059,5759.901960784314,7201.509803921569
2026-01-10 21:54:09.880,3592.5098039215686,1937.0980392156862,1724.235294117647,5760.21568627451,7202.078431372549
2026-01-10 21:54:09.900,3592.705882352941,1937.0588235294117,1723.9411764705883,5760.529411764706,7202.64705882353
2026-01-10 21:54:09.920,3592.901960784314,1937.0196078431372,1723.6470588235295,5760.843137254902,7203.21568627451
2026-01-10 21:54:09.940,3593.098039215686,1936.9803921568628,1723.3529411764705,5761.156862745098,7203.78431372549
2026-01-10 21:54:09.960,3593.294117647059,1936.9411764705883,1723.0588235294117,5761.470588235294,7204.35294117647
2026-01-10 21:54:09.980,3593.4901960784314,1936.9019607843138,1722.764705882353,5761.78431372549,7204.921568627451
2026-01-10 21:54:10.000,3593.6862745098038,1936.862745098039,1722.4705882352941,5762.098039215686,7205.490196078431
2026-01-10 21:54:10.020,3593.8823529411766,1936.8235294117646,1722.1764705882354,5762.411764705882,7206.058823529412
2026-01-10 21:54:10.040,3594.078431372549,1936.7843137254902,1721.8823529411766,5762.725490196079,7206.6274509803925
2026-01-10 21:54:10.060,3594.274509803922,1936.7450980392157,1721.5882352941176,5763.0392156862745,7207.196078431372
2026-01-10 21:54:10.080,3594.470588235294,1936.7058823529412,1721.2941176470588,5763.35294117647,7207.764705882353
2026-01-10 21:54:10.100,3594.6666666666665,1936.6666666666667,1721.0,5763.666666666667,7208.333333333333
2026-01-10 21:54:10.120,3594.8627450980393,1936.6274509803923,1720.7058823529412,5763.980392156863,7208.901960784314
2026-01-10 21:54:10.140,3595.0588235294117,1936.5882352941176,1720.4117647058824,5764.294117647059,7209.470588235294
2026-01-10 21:54:10.160,3595.2549019607845,1936.549019607843,1720.1176470588234,5764.607843137255,7210.0392156862745
2026-01-10 21:54:10.180,3595.450980392157,1936.5098039215686,1719.8235294117646,5764.921568627451,7210.607843137255
2026-01-10 21:54:10.200,3595.6470588235293,1936.4705882352941,1719.5294117647059,5765.235294117647,7211.176470588235
2026-01-10 21:54:10.220,3595.843137254902,1936.4313725490197,1719.235294117647,5765.549019607844,7211.745098039216
2026-01-10 21:54:10.240,3596.0392156862745,1936.3921568627452,1718.9411764705883,5765.862745098039,7212.313725490196
2026-01-10 21:54:10.260,3596.235294117647,1936.3529411764705,1718.6470588235295,5766.176470588235,7212.882352941177
2026-01-10 21:54:10.280,3596.4313725490197,1936.313725490196,1718.3529411764705,5766.490196078431,7213.450980392156
2026-01-10 21:54:10.300,3596.627450980392,1936.2745098039215,1718.0588235294117,5766.803921568628,7214.019607843137
2026-01-10 21:54:10.320,3596.823529411765,1936.235294117647,1717.764705882353,5767.117647058823,7214.588235294118
2026-01-10 21:54:10.340,3597.0196078431372,1936.1960784313726,1717.4705882352941,5767.431372549019,7215.156862745098
2026-01-10 21:54:10.360,3597.2156862745096,1936.1568627450981,1717.1764705882354,5767.745098039216,7215.725490196079
2026-01-10 21:54:10.380,3597.4117647058824,1936.1176470588234,1716.8823529411766,5768.058823529412,7216.294117647059
2026-01-10 21:54:10.400,3597.607843137255,1936.078431372549,1716.5882352941176,5768.3725490196075,7216.862745098039
2026-01-10 21:54:10.420,3597.8039215686276,1936.0392156862745,1716.2941176470588,5768.686274509804,7217.431372549019
2026-01-10 21:54:10.440,3598.0,1936.0,1716.0,5769.0,7218.0
2026-01-10 21:54:10.460,3597.901960784314,1936.2156862745098,1716.6274509803923,5769.058823529412,7217.78431372549
2026-01-10 21:54:10.480,3597.8039215686276,1936.4313725490197,1717.2549019607843,5769.117647058823,7217.568627450981
2026-01-10 21:54:10.500,3597.705882352941,1936.6470588235295,1717.8823529411766,5769.176470588235,7217.35294117647
2026-01-10 21:54:10.520,3597.607843137255,1936.862745098039,1718.5098039215686,5769.235294117647,7217.137254901961
2026-01-10 21:54:10.540,3597.5098039215686,1937.078431372549,1719.137254901961,5769.294117647059,7216.921568627451
2026-01-10 21:54:10.560,3597.4117647058824,1937.2941176470588,1719.764705882353,5769.35294117647,7216.705882352941
2026-01-10 21:54:10.580,3597.3137254901962,1937.5098039215686,1720.3921568627452,5769.411764705882,7216.490196078431
2026-01-10 21:54:10.600,3597.2156862745096,1937.7254901960785,1721.0196078431372,5769.470588235294,7216.274509803921
2026-01-10 21:54:10.620,3597.1176470588234,1937.9411764705883,1721.6470588235295,5769.529411764706,7216.058823529412
2026-01-10 21:54:10.640,3597.0196078431372,1938.1568627450981,1722.2745098039215,5769.588235294118,7215.843137254902
2026-01-10 21:54:10.660,3596.921568627451,1938.3725490196077,1722.9019607843138,5769.64705882353,7215.6274509803925
2026-01-10 21:54:10.680,3596.823529411765,1938.5882352941176,1723.5294117647059,5769.705882352941,7215.411764705882
2026-01-10 21:54:10.700,3596.725490196078,1938.8039215686274,1724.1568627450981,5769.764705882353,7215.196078431372
2026-01-10 21:54:10.720,3596.627450980392,1939.0196078431372,1724.7843137254902,5769.823529411765,7214.980392156863
2026-01-10 21:54:10.740,3596.529411764706,1939.235294117647,1725.4117647058824,5769.882352941177,7214.764705882353
2026-01-10 21:54:10.760,3596.4313725490197,1939.450980392157,1726.0392156862745,5769.941176470588,7214.549019607844
2026-01-10 21:54:10.780,3596.3333333333335,1939.6666666666667,1726.6666666666667,5770.0,7214.333333333333
2026-01-10 21:54:10.800,3596.235294117647,1939.8823529411766,1727.2941176470588,5770.058823529412,7214.117647058823
2026-01-10 21:54:10.820,3596.1372549019607,1940.0980392156862,1727.921568627451,5770.117647058823,7213.901960784314
2026-01-10 21:54:10.840,3596.0392156862745,1940.313725490196,1728.549019607843,5770.176470588235,7213.686274509804
2026-01-10 21:54:10.860,3595.9411764705883,1940.5294117647059,1729.1764705882354,5770.235294117647,7213.470588235294
2026-01-10 21:54:10.880,3595.843137254902,1940.7450980392157,1729.8039215686274,5770.294117647059,7213.254901960784
2026-01-10 21:54:10.900,3595.7450980392155,1940.9607843137255,1730.4313725490197,5770.35294117647,7213.0392156862745
2026-01-10 21:54:10.920,3595.6470588235293,1941.1764705882354,1731.0588235294117,5770.411764705882,7212.823529411765
2026-01-10 21:54:10.940,3595.549019607843,1941.3921568627452,1731.686274509804,5770.470588235294,7212.607843137255
2026-01-10 21:54:10.960,3595.450980392157,1941.6078431372548,1732.313725490196,5770.529411764706,7212.392156862745
2026-01-10 21:54:10.980,3595.3529411764707,1941.8235294117646,1732.9411764705883,5770.588235294118,7212.176470588235
2026-01-10 21:54:11.000,3595.2549019607845,1942.0392156862745,1733.5686274509803,5770.64705882353,7211.9607843137255
2026-01-10 21:54:11.020,3595.156862745098,1942.2549019607843,1734.1960784313726,5770.705882352941,7211.745098039216
2026-01-10 21:54:11.040,3595.0588235294117,1942.4705882352941,1734.8235294117646,5770.764705882353,7211.529411764706
2026-01-10 21:54:11.060,3594.9607843137255,1942.686274509804,1735.450980392157,5770.823529411765,7211.313725490196
2026-01-10 21:54:11.080,3594.8627450980393,1942.9019607843138,1736.078431372549,5770.882352941177,7211.098039215686
2026-01-10 21:54:11.100,3594.764705882353,1943.1176470588234,1736.7058823529412,5770.941176470588,7210.882352941177
2026-01-10 21:54:11.120,3594.6666666666665,1943.3333333333333,1737.3333333333333,5771.0,7210.666666666667
2026-01-10 21:54:11.140,3594.5686274509803,1943.549019607843,1737.9607843137255,5771.058823529412,7210.450980392156
2026-01-10 21:54:11.160,3594.470588235294,1943.764705882353,1738.5882352941176,5771.117647058823,7210.235294117647
2026-01-10 21:54:11.180,3594.372549019608,1943.9803921568628,1739.2156862745098,5771.176470588235,7210.019607843137
2026-01-10 21:54:11.200,3594.274509803922,1944.1960784313726,1739.8431372549019,5771.235294117647,7209.803921568628
2026-01-10 21:54:11.220,3594.176470588235,1944.4117647058824,1740.4705882352941,5771.294117647059,7209.588235294118
2026-01-10 21:54:11.240,3594.078431372549,1944.6274509803923,1741.0980392156862,5771.35294117647,7209.3725490196075
2026-01-10 21:54:11.260,3593.9803921568628,1944.8431372549019,1741.7254901960785,5771.411764705882,7209.156862745098
2026-01-10 21:54:11.280,3593.8823529411766,1945.0588235294117,1742.3529411764705,5771.470588235294,7208.941176470588
2026-01-10 21:54:11.300,3593.7843137254904,1945.2745098039215,1742.9803921568628,5771.529411764706,7208.725490196079
2026-01-10 21:54:11.320,3593.6862745098038,1945.4901960784314,1743.6078431372548,5771.588235294118,7208.509803921569
2026-01-10 21:54:11.340,3593.5882352941176,1945.7058823529412,1744.235294117647,5771.64705882353,7208.294117647059
2026-01-10 21:54:11.360,3593.4901960784314,1945.921568627451,1744.862745098039,5771.705882352941,7208.078431372549
2026-01-10 21:54:11.380,3593.392156862745,1946.137254901961,1745.4901960784314,5771.764705882353,7207.862745098039
2026-01-10 21:54:11.400,3593.294117647059,1946.3529411764705,1746.1176470588234,5771.823529411765,7207.64705882353
2026-01-10 21:54:11.420,3593.1960784313724,1946.5686274509803,1746.7450980392157,5771.882352941177,7207.431372549019
2026-01-10 21:54:11.440,3593.098039215686,1946.7843137254902,1747.3725490196077,5771.941176470588,7207.21568627451
2026-01-10 21:54:11.460,3593.0,1947.0,1748.0,5772.0,7207.0
2026-01-10 21:54:11.480,3593.1071428571427,1946.9285714285713,1747.75,5772.089285714285,7206.946428571428
2026-01-10 21:54:11.500,3593.214285714286,1946.857142857143,1747.5,5772.178571428572,7206.892857142857
2026-01-10 21:54:11.520,3593.3214285714284,1946.7857142857142,1747.25,5772.267857142857,7206.839285714285
2026-01-10 21:54:11.540,3593.4285714285716,1946.7142857142858,1747.0,5772.357142857143,7206.785714285715
2026-01-10 21:54:11.560,3593.535714285714,1946.642857142857,1746.75,5772.446428571428,7206.732142857143
2026-01-10 21:54:11.580,3593.6428571428573,1946.5714285714287,1746.5,5772.535714285715,7206.678571428572
2026-01-10 21:54:11.600,3593.75,1946.5,1746.25,5772.625,7206.625
2026-01-10 21:54:11.620,3593.8571428571427,1946.4285714285713,1746.0,5772.714285714285,7206.571428571428
2026-01-10 21:54:11.640,3593.964285714286,1946.357142857143,1745.75,5772.803571428572,7206.517857142857
2026-01-10 21:54:11.660,3594.0714285714284,1946.2857142857142,1745.5,5772.892857142857,7206.464285714285
2026-01-10 21:54:11.680,3594.1785714285716,1946.2142857142858,1745.25,5772.982142857143,7206.410714285715
2026-01-10 21:54:11.700,3594.285714285714,1946.142857142857,1745.0,5773.071428571428,7206.357142857143
2026-01-10 21:54:11.720,3594.3928571428573,1946.0714285714287,1744.75,5773.160714285715,7206.303571428572
2026-01-10 21:54:11.740,3594.5,1946.0,1744.5,5773.25,7206.25
2026-01-10 21:54:11.760,3594.6071428571427,1945.9285714285713,1744.25,5773.339285714285,7206.196428571428
2026-01-10 21:54:11.780,3594.714285714286,1945.857142857143,1744.0,5773.428571428572,7206.142857142857
2026-01-10 21:54:11.800,3594.8214285714284,1945.7857142857142,1743.75,5773.517857142857,7206.089285714285
2026-01-10 21:54:11.820,3594.9285714285716,1945.7142857142858,1743.5,5773.607142857143,7206.035714285715
2026-01-10 21:54:11.840,3595.035714285714,1945.642857142857,1743.25,5773.696428571428,7205.982142857143
2026-01-10 21:54:11.860,3595.1428571428573,1945.5714285714287,1743.0,5773.785714285715,7205.928571428572
2026-01-10 21:54:11.880,3595.25,1945.5,1742.75,5773.875,7205.875
2026-01-10 21:54:11.900,3595.3571428571427,1945.4285714285713,1742.5,5773.964285714285,7205.821428571428
2026-01-10 21:54:11.920,3595.464285714286,1945.357142857143,1742.25,5774.053571428572,7205.767857142857
2026-01-10 21:54:11.940,3595.5714285714284,1945.2857142857142,1742.0,5774.142857142857,7205.714285714285
2026-01-10 21:54:11.960,3595.6785714285716,1945.2142857142858,1741.75,5774.232142857143,7205.660714285715
2026-01-10 21:54:11.980,3595.785714285714,1945.142857142857,1741.5,5774.321428571428,7205.607142857143
2026-01-10 21:54:12.000,3595.8928571428573,1945.0714285714287,1741.25,5774.410714285715,7205.553571428572
2026-01-10 21:54:12.020,3596.0,1945.0,1741.0,5774.5,7205.5
2026-01-10 21:54:12.040,3596.1071428571427,1944.9285714285713,1740.75,5774.589285714285,7205.446428571428
2026-01-10 21:54:12.060,3596.214285714286,1944.857142857143,1740.5,5774.678571428572,7205.392857142857
2026-01-10 21:54:12.080,3596.3214285714284,1944.7857142857142,1740.25,5774.767857142857,7205.339285714285
2026-01-10 21:54:12.100,3596.4285714285716,1944.7142857142858,1740.0,5774.857142857143,7205.285714285715
2026-01-10 21:54:12.120,3596.535714285714,1944.642857142857,1739.75,5774.946428571428,7205.232142857143
2026-01-10 21:54:12.140,3596.6428571428573,1944.5714285714287,1739.5,5775.035714285715,7205.178571428572
2026-01-10 21:54:12.160,3596.75,1944.5,1739.25,5775.125,7205.125
2026-01-10 21:54:12.180,3596.8571428571427,1944.4285714285713,1739.0,5775.214285714285,7205.071428571428
2026-01-10 21:54:12.200,3596.964285714286,1944.357142857143,1738.75,5775.303571428572,7205.017857142857
2026-01-10 21:54:12.220,3597.0714285714284,1944.2857142857142,1738.5,5775.392857142857,7204.964285714285
2026-01-10 21:54:12.240,3597.1785714285716,1944.2142857142858,1738.25,5775.482142857143,7204.910714285715
2026-01-10 21:54:12.260,3597.285714285714,1944.142857142857,1738.0,5775.571428571428,7204.857142857143
2026-01-10 21:54:12.280,3597.3928571428573,1944.0714285714287,1737.75,5775.660714285715,7204.803571428572
2026-01-10 21:54:12.300,3597.5,1944.0,1737.5,5775.75,7204.75
2026-01-10 21:54:12.320,3597.6071428571427,1943.9285714285713,1737.25,5775.839285714285,7204.696428571428
2026-01-10 21:54:12.340,3597.714285714286,1943.857142857143,1737.0,5775.928571428572,7204.642857142857
2026-01-10 21:54:12.360,3597.8214285714284,1943.7857142857142,1736.75,5776.017857142857,7204.589285714285
2026-01-10 21:54:12.380,3597.9285714285716,1943.7142857142858,1736.5,5776.107142857143,7204.535714285715
2026-01-10 21:54:12.400,3598.035714285714,1943.642857142857,1736.25,5776.196428571428,7204.482142857143
2026-01-10 21:54:12.420,3598.1428571428573,1943.5714285714287,1736.0,5776.285714285715,7204.428571428572
2026-01-10 21:54:12.440,3598.25,1943.5,1735.75,5776.375,7204.375
2026-01-10 21:54:12.460,3598.3571428571427,1943.4285714285713,1735.5,5776.464285714285,7204.321428571428
2026-01-10 21:54:12.480,3598.464285714286,1943.357142857143,1735.25,5776.553571428572,7204.267857142857
2026-01-10 21:54:12.500,3598.5714285714284,1943.2857142857142,1735.0,5776.642857142857,7204.214285714285
2026-01-10 21:54:12.520,3598.6785714285716,1943.2142857142858,1734.75,5776.732142857143,7204.160714285715
2026-01-10 21:54:12.540,3598.785714285714,1943.142857142857,1734.5,5776.821428571428,7204.107142857143
2026-01-10 21:54:12.560,3598.8928571428573,1943.0714285714287,1734.25,5776.910714285715,7204.053571428572
2026-01-10 21:54:12.580,3599.0,1943.0,1734.0,5777.0,7204.0
