timestamp,accX,accY,accZ,ppg,spO2
2026-01-10 21:52:30.880,,,,5652.0,7363.0
2026-01-10 21:52:30.900,27.0,3901.0,3591.0,5651.632653061224,7362.428571428572
2026-01-10 21:52:30.920,26.854166666666668,3901.7083333333335,3548.0416666666665,5651.265306122449,7361.857142857143
2026-01-10 21:52:30.940,26.708333333333332,3902.4166666666665,3505.0833333333335,5650.897959183673,7361.285714285715
2026-01-10 21:52:30.960,26.5625,3903.125,3462.125,5650.530612244898,7360.714285714285
2026-01-10 21:52:30.980,26.416666666666668,3903.8333333333335,3419.1666666666665,5650.163265306122,7360.142857142857
2026-01-10 21:52:31.000,26.270833333333332,3904.5416666666665,3376.2083333333335,5649.7959183673465,7359.571428571428
2026-01-10 21:52:31.020,26.125,3905.25,3333.25,5649.428571428572,7359.0
2026-01-10 21:52:31.040,25.979166666666668,3905.9583333333335,3290.2916666666665,5649.061224489796,7358.428571428572
2026-01-10 21:52:31.060,25.833333333333332,3906.6666666666665,3247.3333333333335,5648.693877551021,7357.857142857143
2026-01-10 21:52:31.080,25.6875,3907.375,3204.375,5648.326530612245,7357.285714285715
2026-01-10 21:52:31.100,25.541666666666668,3908.0833333333335,3161.4166666666665,5647.959183673469,7356.714285714285
2026-01-10 21:52:31.120,25.395833333333332,3908.7916666666665,3118.4583333333335,5647.591836734694,7356.142857142857
2026-01-10 21:52:31.140,25.25,3909.5,3075.5,5647.224489795918,7355.571428571428
2026-01-10 21:52:31.160,25.104166666666668,3910.2083333333335,3032.5416666666665,5646.857142857143,7355.0
2026-01-10 21:52:31.180,24.958333333333332,3910.9166666666665,2989.583333333333,5646.489795918367,7354.428571428572
2026-01-10 21:52:31.200,24.8125,3911.625,2946.625,5646.122448979592,7353.857142857143
2026-01-10 21:52:31.220,24.666666666666668,3912.3333333333335,2903.6666666666665,5645.755102040816,7353.285714285715
2026-01-10 21:52:31.240,24.520833333333332,3913.0416666666665,2860.708333333333,5645.3877551020405,7352.714285714285
2026-01-10 21:52:31.260,24.375,3913.75,2817.75,5645.0204081632655,7352.142857142857
2026-01-10 21:52:31.280,24.229166666666668,3914.4583333333335,2774.7916666666665,5644.65306122449,7351.571428571428
2026-01-10 21:52:31.300,24.083333333333332,3915.1666666666665,2731.833333333333,5644.285714285715,7351.0
2026-01-10 21:52:31.320,23.9375,3915.875,2688.875,5643.918367346939,7350.428571428572
2026-01-10 21:52:31.340,23.791666666666668,3916.5833333333335,2645.9166666666665,5643.551020408163,7349.857142857143
2026-01-10 21:52:31.360,23.645833333333332,3917.2916666666665,2602.958333333333,5643.183673469388,7349.285714285715
2026-01-10 21:52:31.380,23.5,3918.0,2560.0,5642.816326530612,7348.714285714285
2026-01-10 21:52:31.400,23.354166666666668,3918.7083333333335,2517.0416666666665,5642.448979591837,7348.142857142857
2026-01-10 21:52:31.420,23.208333333333332,3919.4166666666665,2474.083333333333,5642.081632653061,7347.571428571428
2026-01-10 21:52:31.440,23.0625,3920.125,2431.125,5641.714285714285,7347.0
2026-01-10 21:52:31.460,22.916666666666664,3920.8333333333335,2388.1666666666665,5641.34693877551,7346.428571428572
2026-01-10 21:52:31.480,22.770833333333332,3921.5416666666665,2345.208333333333,5640.9795918367345,7345.857142857143
2026-01-10 21:52:31.500,22.625,3922.25,2302.25,5640.6122448979595,7345.285714285715
2026-01-10 21:52:31.520,22.479166666666664,3922.9583333333335,2259.2916666666665,5640.244897959184,7344.714285714285
2026-01-10 21:52:31.540,22.333333333333332,3923.6666666666665,2216.333333333333,5639.877551020408,7344.142857142857
2026-01-10 21:52:31.560,22.1875,3924.375,2173.375,5639.510204081633,7343.571428571428
2026-01-10 21:52:31.580,22.041666666666664,3925.0833333333335,2130.4166666666665,5639.142857142857,7343.0
2026-01-10 21:52:31.600,21.895833333333332,3925.7916666666665,2087.458333333333,5638.775510204082,7342.428571428572
2026-01-10 21:52:31.620,21.75,3926.5,2044.5,5638.408163265306,7341.857142857143
2026-01-10 21:52:31.640,21.604166666666664,3927.2083333333335,2001.5416666666665,5638.040816326531,7341.285714285715
2026-01-10 21:52:31.660,21.458333333333332,3927.9166666666665,1958.5833333333333,5637.673469387755,7340.714285714285
2026-01-10 21:52:31.680,21.3125,3928.625,1915.625,5637.306122448979,7340.142857142857
2026-01-10 21:52:31.700,21.166666666666664,3929.3333333333335,1872.6666666666665,5636.938775510204,7339.571428571428
2026-01-10 21:52:31.720,21.020833333333332,3930.0416666666665,1829.7083333333333,5636.571428571428,7339.0
2026-01-10 21:52:31.740,20.875,3930.75,1786.75,5636.2040816326535,7338.428571428572
2026-01-10 21:52:31.760,20.729166666666664,3931.4583333333335,1743.7916666666665,5635.836734693878,7337.857142857143
2026-01-10 21:52:31.780,20.583333333333332,3932.1666666666665,1700.8333333333333,5635.469387755102,7337.285714285715
2026-01-10 21:52:31.800,20.4375,3932.875,1657.875,5635.102040816327,7336.714285714285
2026-01-10 21:52:31.820,20.291666666666664,3933.5833333333335,1614.9166666666665,5634.734693877551,7336.142857142857
2026-01-10 21:52:31.840,20.145833333333332,3934.2916666666665,1571.9583333333333,5634.367346938776,7335.571428571428
2026-01-10 21:52:31.860,20.0,3935.0,1529.0,5634.0,7335.0
2026-01-10 21:52:31.880,59.74,3935.08,1571.14,5633.92,7338.82
2026-01-10 21:52:31.900,99.48,3935.16,1613.28,5633.84,7342.64
2026-01-10 21:52:31.920,139.22,3935.24,1655.42,5633.76,7346.46
2026-01-10 21:52:31.940,178.96,3935.32,1697.56,5633.68,7350.28
2026-01-10 21:52:31.960,218.70000000000002,3935.4,1739.7,5633.6,7354.1
2026-01-10 21:52:31.980,258.44,3935.48,1781.84,5633.52,7357.92
2026-01-10 21:52:32.000,298.18,3935.56,1823.98,5633.44,7361.74
2026-01-10 21:52:32.020,337.92,3935.64,1866.12,5633.36,7365.56
2026-01-10 21:52:32.040,377.66,3935.72,1908.26,5633.28,7369.38
2026-01-10 21:52:32.060,417.40000000000003,3935.8,1950.4,5633.2,7373.2
2026-01-10 21:52:32.080,457.14000000000004,3935.88,1992.54,5633.12,7377.02
2026-01-10 21:52:32.100,496.88,3935.96,2034.68,5633.04,7380.84
2026-01-10 21:52:32.120,536.62,3936.04,2076.82,5632.96,7384.66
2026-01-10 21:52:32.140,576.36,3936.12,2118.96,5632.88,7388.48
2026-01-10 21:52:32.160,616.1,3936.2,2161.1,5632.8,7392.3
2026-01-10 21:52:32.180,655.84,3936.28,2203.24,5632.72,7396.12
2026-01-10 21:52:32.200,695.58,3936.36,2245.38,5632.64,7399.94
2026-01-10 21:52:32.220,735.32,3936.44,2287.52,5632.56,7403.76
2026-01-10 21:52:32.240,775.0600000000001,3936.52,2329.66,5632.48,7407.58
2026-01-10 21:52:32.260,814.8000000000001,3936.6,2371.8,5632.4,7411.4
2026-01-10 21:52:32.280,854.5400000000001,3936.68,2413.94,5632.32,7415.22
2026-01-10 21:52:32.300,894.2800000000001,3936.76,2456.08,5632.24,7419.04
2026-01-10 21:52:32.320,934.0200000000001,3936.84,2498.2200000000003,5632.16,7422.86
2026-01-10 21:52:32.340,973.76,3936.92,2540.36,5632.08,7426.68
2026-01-10 21:52:32.360,1013.5,3937.0,2582.5,5632.0,7430.5
2026-01-10 21:52:32.380,1053.24,3937.08,2624.6400000000003,5631.92,7434.32
2026-01-10 21:52:32.400,1092.98,3937.16,2666.7799999999997,5631.84,7438.14
2026-01-10 21:52:32.420,1132.72,3937.24,2708.92,5631.76,7441.96
2026-01-10 21:52:32.440,1172.46,3937.32,2751.06,5631.68,7445.78
2026-01-10 21:52:32.460,1212.2,3937.4,2793.2,5631.6,7449.6
2026-01-10 21:52:32.480,1251.94,3937.48,2835.34,5631.52,7453.42
2026-01-10 21:52:32.500,1291.68,3937.56,2877.48,5631.44,7457.24
2026-01-10 21:52:32.520,1331.42,3937.64,2919.62,5631.36,7461.06
2026-01-10 21:52:32.540,1371.16,3937.72,2961.76,5631.28,7464.88
2026-01-10 21:52:32.560,1410.9,3937.8,3003.9,5631.2,7468.7
2026-01-10 21:52:32.580,1450.64,3937.88,3046.04,5631.12,7472.52
2026-01-10 21:52:32.600,1490.38,3937.96,3088.1800000000003,5631.04,7476.34
2026-01-10 21:52:32.620,1530.1200000000001,3938.04,3130.3199999999997,5630.96,7480.16
2026-01-10 21:52:32.640,1569.8600000000001,3938.12,3172.46,5630.88,7483.98
2026-01-10 21:52:32.660,1609.6000000000001,3938.2,3214.6,5630.8,7487.8
2026-01-10 21:52:32.680,1649.3400000000001,3938.28,3256.74,5630.72,7491.62
2026-01-10 21:52:32.700,1689.0800000000002,3938.36,3298.88,5630.64,7495.44
2026-01-10 21:52:32.720,1728.8200000000002,3938.44,3341.02,5630.56,7499.26
2026-01-10 21:52:32.740,1768.5600000000002,3938.52,3383.16,5630.48,7503.08
2026-01-10 21:52:32.760,1808.3000000000002,3938.6,3425.3,5630.4,7506.9
2026-01-10 21:52:32.780,1848.0400000000002,3938.68,3467.44,5630.32,7510.72
2026-01-10 21:52:32.800,1887.7800000000002,3938.76,3509.58,5630.24,7514.54
2026-01-10 21:52:32.820,1927.52,3938.84,3551.7200000000003,5630.16,7518.36
2026-01-10 21:52:32.840,1967.26,3938.92,3593.86,5630.08,7522.18
2026-01-10 21:52:32.860,2007.0,3939.0,3636.0,5630.0,7526.0
2026-01-10 21:52:32.880,1966.2857142857142,3897.9591836734694,3592.5102040816328,5628.244897959184,7522.265306122449
2026-01-10 21:52:32.900,1925.5714285714287,3856.918367346939,3549.0204081632655,5626.489795918367,7518.530612244898
2026-01-10 21:52:32.920,1884.857142857143,3815.877551020408,3505.530612244898,5624.734693877551,7514.7959183673465
2026-01-10 21:52:32.940,1844.142857142857,3774.8367346938776,3462.0408163265306,5622.9795918367345,7511.061224489796
2026-01-10 21:52:32.960,1803.4285714285713,3733.795918367347,3418.5510204081634,5621.224489795918,7507.326530612245
2026-01-10 21:52:32.980,1762.7142857142858,3692.7551020408164,3375.0612244897957,5619.469387755102,7503.591836734694
2026-01-10 21:52:33.000,1722.0,3651.714285714286,3331.5714285714284,5617.714285714285,7499.857142857143
2026-01-10 21:52:33.020,1681.2857142857142,3610.673469387755,3288.081632653061,5615.959183673469,7496.122448979592
2026-01-10 21:52:33.040,1640.5714285714284,3569.6326530612246,3244.591836734694,5614.2040816326535,7492.3877551020405
2026-01-10 21:52:33.060,1599.857142857143,3528.591836734694,3201.1020408163267,5612.448979591837,7488.65306122449
2026-01-10 21:52:33.080,1559.142857142857,3487.5510204081634,3157.612244897959,5610.693877551021,7484.918367346939
2026-01-10 21:52:33.100,1518.4285714285716,3446.5102040816328,3114.122448979592,5608.938775510204,7481.183673469388
2026-01-10 21:52:33.120,1477.7142857142858,3405.469387755102,3070.6326530612246,5607.183673469388,7477.448979591837
2026-01-10 21:52:33.140,1437.0,3364.4285714285716,3027.142857142857,5605.428571428572,7473.714285714285
2026-01-10 21:52:33.160,1396.2857142857142,3323.387755102041,2983.6530612244896,5603.673469387755,7469.9795918367345
2026-01-10 21:52:33.180,1355.5714285714284,3282.3469387755104,2940.1632653061224,5601.918367346939,7466.244897959184
2026-01-10 21:52:33.200,1314.857142857143,3241.3061224489797,2896.673469387755,5600.163265306122,7462.510204081633
2026-01-10 21:52:33.220,1274.142857142857,3200.265306122449,2853.183673469388,5598.408163265306,7458.775510204082
2026-01-10 21:52:33.240,1233.4285714285716,3159.2244897959185,2809.6938775510203,5596.65306122449,7455.040816326531
2026-01-10 21:52:33.260,1192.7142857142858,3118.183673469388,2766.204081632653,5594.897959183673,7451.306122448979
2026-01-10 21:52:33.280,1152.0,3077.1428571428573,2722.714285714286,5593.142857142857,7447.571428571428
2026-01-10 21:52:33.300,1111.2857142857142,3036.1020408163267,2679.224489795918,5591.3877551020405,7443.836734693878
2026-01-10 21:52:33.320,1070.5714285714284,2995.061224489796,2635.734693877551,5589.632653061224,7440.102040816327
2026-01-10 21:52:33.340,1029.857142857143,2954.0204081632655,2592.2448979591836,5587.877551020408,7436.367346938776
2026-01-10 21:52:33.360,989.1428571428571,2912.9795918367345,2548.7551020408164,5586.122448979592,7432.632653061224
2026-01-10 21:52:33.380,948.4285714285713,2871.9387755102043,2505.265306122449,5584.367346938776,7428.897959183673
2026-01-10 21:52:33.400,907.7142857142858,2830.8979591836733,2461.7755102040815,5582.6122448979595,7425.163265306122
2026-01-10 21:52:33.420,867.0,2789.857142857143,2418.285714285714,5580.857142857143,7421.428571428572
2026-01-10 21:52:33.440,826.2857142857142,2748.816326530612,2374.795918367347,5579.102040816327,7417.693877551021
2026-01-10 21:52:33.460,785.5714285714284,2707.775510204082,2331.3061224489793,5577.34693877551,7413.959183673469
2026-01-10 21:52:33.480,744.8571428571429,2666.734693877551,2287.816326530612,5575.591836734694,7410.224489795918
2026-01-10 21:52:33.500,704.1428571428571,2625.6938775510207,2244.326530612245,5573.836734693878,7406.489795918367
2026-01-10 21:52:33.520,663.4285714285713,2584.6530612244896,2200.8367346938776,5572.081632653061,7402.755102040816
2026-01-10 21:52:33.540,622.7142857142858,2543.6122448979595,2157.3469387755104,5570.326530612245,7399.0204081632655
2026-01-10 21:52:33.560,582.0,2502.5714285714284,2113.8571428571427,5568.571428571428,7395.285714285715
2026-01-10 21:52:33.580,541.2857142857142,2461.5306122448983,2070.3673469387754,5566.816326530612,7391.551020408163
2026-01-10 21:52:33.600,500.57142857142844,2420.4897959183672,2026.8775510204082,5565.061224489796,7387.816326530612
2026-01-10 21:52:33.620,459.8571428571429,2379.448979591837,1983.3877551020407,5563.306122448979,7384.081632653061
2026-01-10 21:52:33.640,419.1428571428571,2338.408163265306,1939.8979591836733,5561.551020408163,7380.34693877551
2026-01-10 21:52:33.660,378.42857142857133,2297.367346938776,1896.408163265306,5559.7959183673465,7376.6122448979595
2026-01-10 21:52:33.680,337.7142857142858,2256.326530612245,1852.9183673469388,5558.040816326531,7372.877551020408
2026-01-10 21:52:33.700,297.0,2215.2857142857147,1809.4285714285713,5556.285714285715,7369.142857142857
2026-01-10 21:52:33.720,256.2857142857142,2174.2448979591836,1765.9387755102039,5554.530612244898,7365.408163265306
2026-01-10 21:52:33.740,215.57142857142844,2133.2040816326535,1722.4489795918366,5552.775510204082,7361.673469387755
2026-01-10 21:52:33.760,174.8571428571429,2092.1632653061224,1678.9591836734694,5551.0204081632655,7357.938775510204
2026-01-10 21:52:33.780,134.1428571428571,2051.1224489795923,1635.469387755102,5549.265306122449,7354.2040816326535
2026-01-10 21:52:33.800,93.42857142857133,2010.0816326530614,1591.9795918367345,5547.510204081633,7350.469387755102
2026-01-10 21:52:33.820,52.71428571428578,1969.0408163265306,1548.4897959183672,5545.755102040816,7346.734693877551
2026-01-10 21:52:33.840,12.0,1928.0,1505.0,5544.0,7343.0
2026-01-10 21:52:33.860,12.365384615384615,1965.2307692307693,1545.7692307692307,5545.807692307692,7346.057692307692
2026-01-10 21:52:33.880,12.73076923076923,2002.4615384615386,1586.5384615384614,5547.615384615385,7349.115384615385
2026-01-10 21:52:33.900,13.096153846153847,2039.6923076923076,1627.3076923076924,5549.423076923077,7352.173076923077
2026-01-10 21:52:33.920,13.461538461538462,2076.923076923077,1668.076923076923,5551.2307692307695,7355.2307692307695
2026-01-10 21:52:33.940,13.826923076923077,2114.153846153846,1708.8461538461538,5553.038461538462,7358.288461538462
2026-01-10 21:52:33.960,14.192307692307692,2151.3846153846152,1749.6153846153845,5554.846153846154,7361.346153846154
2026-01-10 21:52:33.980,14.557692307692307,2188.6153846153848,1790.3846153846152,5556.653846153846,7364.403846153846
2026-01-10 21:52:34.000,14.923076923076923,2225.846153846154,1831.1538461538462,5558.461538461538,7367.461538461538
2026-01-10 21:52:34.020,15.288461538461538,2263.076923076923,1871.923076923077,5560.2692307692305,7370.5192307692305
2026-01-10 21:52:34.040,15.653846153846153,2300.3076923076924,1912.6923076923076,5562.076923076923,7373.576923076923
2026-01-10 21:52:34.060,16.01923076923077,2337.5384615384614,1953.4615384615386,5563.884615384615,7376.634615384615
2026-01-10 21:52:34.080,16.384615384615383,2374.769230769231,1994.230769230769,5565.692307692308,7379.692307692308
2026-01-10 21:52:34.100,16.75,2412.0,2035.0,5567.5,7382.75
2026-01-10 21:52:34.120,17.115384615384613,2449.2307692307695,2075.7692307692305,5569.307692307692,7385.807692307692
2026-01-10 21:52:34.140,17.48076923076923,2486.4615384615386,2116.5384615384614,5571.115384615385,7388.865384615385
2026-01-10 21:52:34.160,17.846153846153847,2523.6923076923076,2157.3076923076924,5572.923076923077,7391.923076923077
2026-01-10 21:52:34.180,18.21153846153846,2560.923076923077,2198.076923076923,5574.7307692307695,7394.9807692307695
2026-01-10 21:52:34.200,18.576923076923077,2598.153846153846,2238.846153846154,5576.538461538462,7398.038461538462
2026-01-10 21:52:34.220,18.942307692307693,2635.3846153846152,2279.6153846153848,5578.346153846154,7401.096153846154
2026-01-10 21:52:34.240,19.307692307692307,2672.6153846153848,2320.3846153846152,5580.153846153846,7404.153846153846
2026-01-10 21:52:34.260,19.673076923076923,2709.846153846154,2361.153846153846,5581.961538461538,7407.211538461538
2026-01-10 21:52:34.280,20.03846153846154,2747.076923076923,2401.923076923077,5583.7692307692305,7410.2692307692305
2026-01-10 21:52:34.300,20.403846153846153,2784.3076923076924,2442.6923076923076,5585.576923076923,7413.326923076923
2026-01-10 21:52:34.320,20.769230769230766,2821.538461538462,2483.461538461538,5587.384615384615,7416.384615384615
2026-01-10 21:52:34.340,21.134615384615383,2858.769230769231,2524.230769230769,5589.192307692308,7419.442307692308
2026-01-10 21:52:34.360,21.5,2896.0,2565.0,5591.0,7422.5
2026-01-10 21:52:34.380,21.865384615384613,2933.2307692307695,2605.7692307692305,5592.807692307692,7425.557692307692
2026-01-10 21:52:34.400,22.23076923076923,2970.4615384615386,2646.5384615384614,5594.615384615385,7428.615384615385
2026-01-10 21:52:34.420,22.596153846153847,3007.6923076923076,2687.3076923076924,5596.423076923077,7431.673076923077
2026-01-10 21:52:34.440,22.96153846153846,3044.923076923077,2728.076923076923,5598.2307692307695,7434.7307692307695
2026-01-10 21:52:34.460,23.326923076923077,3082.153846153846,2768.846153846154,5600.038461538462,7437.788461538462
2026-01-10 21:52:34.480,23.692307692307693,3119.3846153846152,2809.6153846153848,5601.846153846154,7440.846153846154
2026-01-10 21:52:34.500,24.057692307692307,3156.6153846153848,2850.3846153846152,5603.653846153846,7443.903846153846
2026-01-10 21:52:34.520,24.42307692307692,3193.8461538461543,2891.1538461538457,5605.461538461538,7446.961538461538
2026-01-10 21:52:34.540,24.78846153846154,3231.076923076923,2931.923076923077,5607.2692307692305,7450.0192307692305
2026-01-10 21:52:34.560,25.153846153846153,3268.3076923076924,2972.6923076923076,5609.076923076923,7453.076923076923
2026-01-10 21:52:34.580,25.519230769230766,3305.538461538462,3013.461538461538,5610.884615384615,7456.134615384615
2026-01-10 21:52:34.600,25.884615384615383,3342.769230769231,3054.230769230769,5612.692307692308,7459.192307692308
2026-01-10 21:52:34.620,26.25,3380.0,3095.0,5614.5,7462.25
2026-01-10 21:52:34.640,26.615384615384613,3417.2307692307695,3135.7692307692305,5616.307692307692,7465.307692307692
2026-01-10 21:52:34.660,26.98076923076923,3454.4615384615386,3176.5384615384614,5618.115384615385,7468.365384615385
2026-01-10 21:52:34.680,27.346153846153847,3491.6923076923076,3217.3076923076924,5619.923076923077,7471.423076923077
2026-01-10 21:52:34.700,27.71153846153846,3528.923076923077,3258.076923076923,5621.7307692307695,7474.4807692307695
2026-01-10 21:52:34.720,28.076923076923077,3566.153846153846,3298.846153846154,5623.538461538462,7477.538461538462
2026-01-10 21:52:34.740,28.44230769230769,3603.3846153846152,3339.6153846153848,5625.346153846154,7480.596153846154
2026-01-10 21:52:34.760,28.807692307692307,3640.6153846153848,3380.3846153846152,5627.153846153846,7483.653846153846
2026-01-10 21:52:34.780,29.173076923076923,3677.8461538461543,3421.1538461538457,5628.961538461538,7486.711538461538
2026-01-10 21:52:34.800,29.538461538461537,3715.0769230769233,3461.9230769230767,5630.7692307692305,7489.7692307692305
2026-01-10 21:52:34.820,29.903846153846153,3752.3076923076924,3502.6923076923076,5632.576923076923,7492.826923076923
2026-01-10 21:52:34.840,30.269230769230766,3789.538461538462,3543.461538461538,5634.384615384615,7495.884615384615
2026-01-10 21:52:34.860,30.634615384615383,3826.769230769231,3584.230769230769,5636.192307692308,7498.942307692308
2026-01-10 21:52:34.880,31.0,3864.0,3625.0,5638.0,7502.0
2026-01-10 21:52:34.900,31.34,3826.4,3624.32,5635.0,7498.58
2026-01-10 21:52:34.920,31.68,3788.8,3623.64,5632.0,7495.16
2026-01-10 21:52:34.940,32.02,3751.2,3622.96,5629.0,7491.74
2026-01-10 21:52:34.960,32.36,3713.6,3622.28,5626.0,7488.32
2026-01-10 21:52:34.980,32.7,3676.0,3621.6,5623.0,7484.9
2026-01-10 21:52:35.000,33.04,3638.4,3620.92,5620.0,7481.48
2026-01-10 21:52:35.020,33.38,3600.8,3620.24,5617.0,7478.06
2026-01-10 21:52:35.040,33.72,3563.2,3619.56,5614.0,7474.64
2026-01-10 21:52:35.060,34.06,3525.6,3618.88,5611.0,7471.22
2026-01-10 21:52:35.080,34.4,3488.0,3618.2,5608.0,7467.8
2026-01-10 21:52:35.100,34.74,3450.4,3617.52,5605.0,7464.38
2026-01-10 21:52:35.120,35.08,3412.8,3616.84,5602.0,7460.96
2026-01-10 21:52:35.140,35.42,3375.2,3616.16,5599.0,7457.54
2026-01-10 21:52:35.160,35.76,3337.6,3615.48,5596.0,7454.12
2026-01-10 21:52:35.180,36.1,3300.0,3614.8,5593.0,7450.7
2026-01-10 21:52:35.200,36.44,3262.4,3614.12,5590.0,7447.28
2026-01-10 21:52:35.220,36.78,3224.8,3613.44,5587.0,7443.86
2026-01-10 21:52:35.240,37.12,3187.2,3612.76,5584.0,7440.44
2026-01-10 21:52:35.260,37.46,3149.6,3612.08,5581.0,7437.02
2026-01-10 21:52:35.280,37.8,3112.0,3611.4,5578.0,7433.6
2026-01-10 21:52:35.300,38.14,3074.4,3610.72,5575.0,7430.18
2026-01-10 21:52:35.320,38.480000000000004,3036.8,3610.04,5572.0,7426.76
2026-01-10 21:52:35.340,38.82,2999.2,3609.36,5569.0,7423.34
2026-01-10 21:52:35.360,39.16,2961.6,3608.68,5566.0,7419.92
2026-01-10 21:52:35.380,39.5,2924.0,3608.0,5563.0,7416.5
2026-01-10 21:52:35.400,39.84,2886.4,3607.32,5560.0,7413.08
2026-01-10 21:52:35.420,40.18,2848.8,3606.64,5557.0,7409.66
2026-01-10 21:52:35.440,40.52,2811.2,3605.96,5554.0,7406.24
2026-01-10 21:52:35.460,40.86,2773.6,3605.28,5551.0,7402.82
2026-01-10 21:52:35.480,41.2,2736.0,3604.6,5548.0,7399.4
2026-01-10 21:52:35.500,41.54,2698.3999999999996,3603.92,5545.0,7395.98
2026-01-10 21:52:35.520,41.88,2660.8,3603.24,5542.0,7392.56
2026-01-10 21:52:35.540,42.22,2623.2,3602.56,5539.0,7389.14
2026-01-10 21:52:35.560,42.56,2585.6,3601.88,5536.0,7385.72
2026-01-10 21:52:35.580,42.9,2548.0,3601.2,5533.0,7382.3
2026-01-10 21:52:35.600,43.24,2510.3999999999996,3600.52,5530.0,7378.88
2026-01-10 21:52:35.620,43.58,2472.8,3599.84,5527.0,7375.46
2026-01-10 21:52:35.640,43.92,2435.2,3599.16,5524.0,7372.04
2026-01-10 21:52:35.660,44.260000000000005,2397.6,3598.48,5521.0,7368.62
2026-01-10 21:52:35.680,44.6,2360.0,3597.8,5518.0,7365.2
2026-01-10 21:52:35.700,44.94,2322.3999999999996,3597.12,5515.0,7361.78
2026-01-10 21:52:35.720,45.28,2284.8,3596.44,5512.0,7358.36
2026-01-10 21:52:35.740,45.620000000000005,2247.2,3595.76,5509.0,7354.94
2026-01-10 21:52:35.760,45.96,2209.6,3595.08,5506.0,7351.52
2026-01-10 21:52:35.780,46.3,2172.0,3594.4,5503.0,7348.1
2026-01-10 21:52:35.800,46.64,2134.3999999999996,3593.72,5500.0,7344.68
2026-01-10 21:52:35.820,46.980000000000004,2096.8,3593.04,5497.0,7341.26
2026-01-10 21:52:35.840,47.32,2059.2,3592.36,5494.0,7337.84
2026-01-10 21:52:35.860,47.66,2021.6,3591.68,5491.0,7334.42
2026-01-10 21:52:35.880,48.0,1984.0,3591.0,5488.0,7331.0
2026-01-10 21:52:35.900,88.77551020408163,2024.061224489796,3590.8571428571427,5489.428571428572,7329.959183673469
2026-01-10 21:52:35.920,129.55102040816325,2064.122448979592,3590.714285714286,5490.857142857143,7328.918367346939
2026-01-10 21:52:35.940,170.3265306122449,2104.183673469388,3590.5714285714284,5492.285714285715,7327.877551020408
2026-01-10 21:52:35.960,211.10204081632654,2144.2448979591836,3590.4285714285716,5493.714285714285,7326.836734693878
2026-01-10 21:52:35.980,251.87755102040816,2184.3061224489797,3590.285714285714,5495.142857142857,7325.7959183673465
2026-01-10 21:52:36.000,292.6530612244898,2224.3673469387754,3590.1428571428573,5496.571428571428,7324.755102040816
2026-01-10 21:52:36.020,333.42857142857144,2264.4285714285716,3590.0,5498.0,7323.714285714285
2026-01-10 21:52:36.040,374.2040816326531,2304.4897959183672,3589.8571428571427,5499.428571428572,7322.673469387755
2026-01-10 21:52:36.060,414.9795918367347,2344.5510204081634,3589.714285714286,5500.857142857143,7321.632653061224
2026-01-10 21:52:36.080,455.7551020408163,2384.612244897959,3589.5714285714284,5502.285714285715,7320.591836734694
2026-01-10 21:52:36.100,496.53061224489795,2424.673469387755,3589.4285714285716,5503.714285714285,7319.551020408163
2026-01-10 21:52:36.120,537.3061224489796,2464.734693877551,3589.285714285714,5505.142857142857,7318.510204081633
2026-01-10 21:52:36.140,578.0816326530612,2504.795918367347,3589.1428571428573,5506.571428571428,7317.469387755102
2026-01-10 21:52:36.160,618.8571428571429,2544.857142857143,3589.0,5508.0,7316.428571428572
2026-01-10 21:52:36.180,659.6326530612245,2584.918367346939,3588.8571428571427,5509.428571428572,7315.3877551020405
2026-01-10 21:52:36.200,700.4081632653061,2624.9795918367345,3588.714285714286,5510.857142857143,7314.34693877551
2026-01-10 21:52:36.220,741.1836734693878,2665.0408163265306,3588.5714285714284,5512.285714285715,7313.306122448979
2026-01-10 21:52:36.240,781.9591836734694,2705.1020408163267,3588.4285714285716,5513.714285714285,7312.265306122449
2026-01-10 21:52:36.260,822.7346938775511,2745.1632653061224,3588.285714285714,5515.142857142857,7311.224489795918
2026-01-10 21:52:36.280,863.5102040816327,2785.224489795918,3588.1428571428573,5516.571428571428,7310.183673469388
2026-01-10 21:52:36.300,904.2857142857143,2825.285714285714,3588.0,5518.0,7309.142857142857
2026-01-10 21:52:36.320,945.0612244897959,2865.3469387755104,3587.8571428571427,5519.428571428572,7308.102040816327
2026-01-10 21:52:36.340,985.8367346938776,2905.408163265306,3587.714285714286,5520.857142857143,7307.061224489796
2026-01-10 21:52:36.360,1026.6122448979593,2945.469387755102,3587.5714285714284,5522.285714285715,7306.0204081632655
2026-01-10 21:52:36.380,1067.387755102041,2985.530612244898,3587.4285714285716,5523.714285714285,7304.9795918367345
2026-01-10 21:52:36.400,1108.1632653061224,3025.591836734694,3587.285714285714,5525.142857142857,7303.938775510204
2026-01-10 21:52:36.420,1148.938775510204,3065.6530612244896,3587.1428571428573,5526.571428571428,7302.897959183673
2026-01-10 21:52:36.440,1189.7142857142858,3105.714285714286,3587.0,5528.0,7301.857142857143
2026-01-10 21:52:36.460,1230.4897959183675,3145.775510204082,3586.8571428571427,5529.428571428572,7300.816326530612
2026-01-10 21:52:36.480,1271.265306122449,3185.8367346938776,3586.714285714286,5530.857142857143,7299.775510204082
2026-01-10 21:52:36.500,1312.0408163265306,3225.8979591836733,3586.5714285714284,5532.285714285715,7298.734693877551
2026-01-10 21:52:36.520,1352.8163265306123,3265.9591836734694,3586.4285714285716,5533.714285714285,7297.693877551021
2026-01-10 21:52:36.540,1393.591836734694,3306.0204081632655,3586.285714285714,5535.142857142857,7296.65306122449
2026-01-10 21:52:36.560,1434.3673469387757,3346.081632653061,3586.1428571428573,5536.571428571428,7295.6122448979595
2026-01-10 21:52:36.580,1475.142857142857,3386.142857142857,3586.0,5538.0,7294.571428571428
2026-01-10 21:52:36.600,1515.9183673469388,3426.204081632653,3585.8571428571427,5539.428571428572,7293.530612244898
2026-01-10 21:52:36.620,1556.6938775510205,3466.265306122449,3585.714285714286,5540.857142857143,7292.489795918367
2026-01-10 21:52:36.640,1597.4693877551022,3506.326530612245,3585.5714285714284,5542.285714285715,7291.448979591837
2026-01-10 21:52:36.660,1638.2448979591836,3546.3877551020405,3585.4285714285716,5543.714285714285,7290.408163265306
2026-01-10 21:52:36.680,1679.0204081632653,3586.4489795918366,3585.285714285714,5545.142857142857,7289.367346938776
2026-01-10 21:52:36.700,1719.795918367347,3626.5102040816328,3585.1428571428573,5546.571428571428,7288.326530612245
2026-01-10 21:52:36.720,1760.5714285714287,3666.5714285714284,3585.0,5548.0,7287.285714285715
2026-01-10 21:52:36.740,1801.3469387755104,3706.6326530612246,3584.8571428571427,5549.428571428572,7286.244897959184
2026-01-10 21:52:36.760,1842.1224489795918,3746.6938775510207,3584.714285714286,5550.857142857143,7285.2040816326535
2026-01-10 21:52:36.780,1882.8979591836735,3786.7551020408164,3584.5714285714284,5552.285714285715,7284.163265306122
2026-01-10 21:52:36.800,1923.6734693877552,3826.816326530612,3584.4285714285716,5553.714285714285,7283.122448979592
2026-01-10 21:52:36.820,1964.4489795918369,3866.877551020408,3584.285714285714,5555.142857142857,7282.081632653061
2026-01-10 21:52:36.840,2005.2244897959185,3906.9387755102043,3584.1428571428573,5556.571428571428,7281.040816326531
2026-01-10 21:52:36.860,2046.0,3947.0,3584.0,5558.0,7280.0
2026-01-10 21:52:36.880,2007.5961538461538,3946.6153846153848,3544.269230769231,5558.711538461538,7281.755102040816
2026-01-10 21:52:36.900,1969.1923076923076,3946.230769230769,3504.5384615384614,5559.423076923077,7283.510204081633
2026-01-10 21:52:36.920,1930.7884615384614,3945.846153846154,3464.8076923076924,5560.134615384615,7285.265306122449
2026-01-10 21:52:36.940,1892.3846153846155,3945.4615384615386,3425.076923076923,5560.846153846154,7287.0204081632655
2026-01-10 21:52:36.960,1853.9807692307693,3945.076923076923,3385.346153846154,5561.557692307692,7288.775510204082
2026-01-10 21:52:36.980,1815.576923076923,3944.6923076923076,3345.6153846153848,5562.2692307692305,7290.530612244898
2026-01-10 21:52:37.000,1777.173076923077,3944.3076923076924,3305.8846153846152,5562.9807692307695,7292.285714285715
2026-01-10 21:52:37.020,1738.7692307692307,3943.923076923077,3266.153846153846,5563.692307692308,7294.040816326531
2026-01-10 21:52:37.040,1700.3653846153848,3943.5384615384614,3226.423076923077,5564.403846153846,7295.7959183673465
2026-01-10 21:52:37.060,1661.9615384615386,3943.153846153846,3186.6923076923076,5565.115384615385,7297.551020408163
2026-01-10 21:52:37.080,1623.5576923076924,3942.769230769231,3146.9615384615386,5565.826923076923,7299.306122448979
2026-01-10 21:52:37.100,1585.1538461538462,3942.3846153846152,3107.230769230769,5566.538461538462,7301.061224489796
2026-01-10 21:52:37.120,1546.75,3942.0,3067.5,5567.25,7302.816326530612
2026-01-10 21:52:37.140,1508.3461538461538,3941.6153846153848,3027.7692307692305,5567.961538461538,7304.571428571428
2026-01-10 21:52:37.160,1469.9423076923076,3941.230769230769,2988.0384615384614,5568.673076923077,7306.326530612245
2026-01-10 21:52:37.180,1431.5384615384614,3940.846153846154,2948.3076923076924,5569.384615384615,7308.081632653061
2026-01-10 21:52:37.200,1393.1346153846152,3940.4615384615386,2908.576923076923,5570.096153846154,7309.836734693878
2026-01-10 21:52:37.220,1354.7307692307693,3940.076923076923,2868.846153846154,5570.807692307692,7311.591836734694
2026-01-10 21:52:37.240,1316.326923076923,3939.6923076923076,2829.1153846153848,5571.5192307692305,7313.34693877551
2026-01-10 21:52:37.260,1277.923076923077,3939.3076923076924,2789.3846153846152,5572.2307692307695,7315.102040816327
2026-01-10 21:52:37.280,1239.519230769231,3938.923076923077,2749.653846153846,5572.942307692308,7316.857142857143
2026-01-10 21:52:37.300,1201.1153846153848,3938.5384615384614,2709.923076923077,5573.653846153846,7318.6122448979595
2026-01-10 21:52:37.320,1162.7115384615386,3938.153846153846,2670.1923076923076,5574.365384615385,7320.367346938776
2026-01-10 21:52:37.340,1124.3076923076924,3937.769230769231,2630.461538461538,5575.076923076923,7322.122448979592
2026-01-10 21:52:37.360,1085.9038461538462,3937.3846153846152,2590.730769230769,5575.788461538462,7323.877551020408
2026-01-10 21:52:37.380,1047.5,3937.0,2551.0,5576.5,7325.632653061224
2026-01-10 21:52:37.400,1009.0961538461538,3936.6153846153848,2511.2692307692305,5577.211538461538,7327.3877551020405
2026-01-10 21:52:37.420,970.6923076923076,3936.230769230769,2471.5384615384614,5577.923076923077,7329.142857142857
2026-01-10 21:52:37.440,932.2884615384617,3935.846153846154,2431.8076923076924,5578.634615384615,7330.897959183673
2026-01-10 21:52:37.460,893.8846153846155,3935.4615384615386,2392.076923076923,5579.346153846154,7332.65306122449
2026-01-10 21:52:37.480,855.4807692307693,3935.076923076923,2352.346153846154,5580.057692307692,7334.408163265306
2026-01-10 21:52:37.500,817.0769230769231,3934.6923076923076,2312.6153846153848,5580.7692307692305,7336.163265306122
2026-01-10 21:52:37.520,778.6730769230769,3934.3076923076924,2272.8846153846152,5581.4807692307695,7337.918367346939
2026-01-10 21:52:37.540,740.2692307692307,3933.923076923077,2233.1538461538457,5582.192307692308,7339.673469387755
2026-01-10 21:52:37.560,701.8653846153845,3933.5384615384614,2193.423076923077,5582.903846153846,7341.428571428572
2026-01-10 21:52:37.580,663.4615384615386,3933.153846153846,2153.6923076923076,5583.615384615385,7343.183673469388
2026-01-10 21:52:37.600,625.0576923076924,3932.769230769231,2113.961538461538,5584.326923076923,7344.938775510204
2026-01-10 21:52:37.620,586.6538461538462,3932.3846153846152,2074.230769230769,5585.038461538462,7346.693877551021
2026-01-10 21:52:37.640,548.25,3932.0,2034.5,5585.75,7348.448979591837
2026-01-10 21:52:37.660,509.8461538461538,3931.6153846153848,1994.7692307692307,5586.461538461538,7350.2040816326535
2026-01-10 21:52:37.680,471.4423076923076,3931.230769230769,1955.0384615384614,5587.173076923077,7351.959183673469
2026-01-10 21:52:37.700,433.03846153846166,3930.846153846154,1915.3076923076922,5587.884615384615,7353.714285714285
2026-01-10 21:52:37.720,394.6346153846155,3930.4615384615386,1875.5769230769229,5588.596153846154,7355.469387755102
2026-01-10 21:52:37.740,356.2307692307693,3930.076923076923,1835.8461538461538,5589.307692307692,7357.224489795918
2026-01-10 21:52:37.760,317.8269230769231,3929.6923076923076,1796.1153846153845,5590.0192307692305,7358.9795918367345
2026-01-10 21:52:37.780,279.4230769230769,3929.3076923076924,1756.3846153846152,5590.7307692307695,7360.734693877551
2026-01-10 21:52:37.800,241.01923076923072,3928.923076923077,1716.653846153846,5591.442307692308,7362.489795918367
2026-01-10 21:52:37.820,202.61538461538476,3928.5384615384614,1676.9230769230767,5592.153846153846,7364.244897959184
2026-01-10 21:52:37.840,164.21153846153857,3928.153846153846,1637.1923076923076,5592.865384615385,7366.0
2026-01-10 21:52:37.860,125.80769230769238,3927.769230769231,1597.4615384615383,5593.576923076923,7367.02
2026-01-10 21:52:37.880,87.40384615384619,3927.3846153846152,1557.730769230769,5594.288461538462,7368.04
2026-01-10 21:52:37.900,49.0,3927.0,1518.0,5595.0,7369.06
2026-01-10 21:52:37.920,50.326530612244895,3887.387755102041,1516.3877551020407,5592.148936170212,7370.08
2026-01-10 21:52:37.940,51.6530612244898,3847.7755102040815,1514.7755102040817,5589.297872340426,7371.1
2026-01-10 21:52:37.960,52.97959183673469,3808.1632653061224,1513.1632653061224,5586.446808510638,7372.12
2026-01-10 21:52:37.980,54.30612244897959,3768.5510204081634,1511.5510204081634,5583.595744680851,7373.14
2026-01-10 21:52:38.000,55.63265306122449,3728.938775510204,1509.938775510204,5580.744680851064,7374.16
2026-01-10 21:52:38.020,56.95918367346939,3689.326530612245,1508.3265306122448,5577.893617021276,7375.18
2026-01-10 21:52:38.040,58.285714285714285,3649.714285714286,1506.7142857142858,5575.04255319149,7376.2
2026-01-10 21:52:38.060,59.61224489795919,3610.1020408163267,1505.1020408163265,5572.191489361702,7377.22
2026-01-10 21:52:38.080,60.93877551020408,3570.4897959183672,1503.4897959183672,5569.340425531915,7378.24
2026-01-10 21:52:38.100,62.265306122448976,3530.877551020408,1501.8775510204082,5566.489361702128,7379.26
2026-01-10 21:52:38.120,63.59183673469388,3491.265306122449,1500.265306122449,5563.63829787234,7380.28
2026-01-10 21:52:38.140,64.91836734693878,3451.6530612244896,1498.6530612244899,5560.787234042553,7381.3
2026-01-10 21:52:38.160,66.24489795918367,3412.0408163265306,1497.0408163265306,5557.936170212766,7382.32
2026-01-10 21:52:38.180,67.57142857142857,3372.4285714285716,1495.4285714285713,5555.085106382979,7383.34
2026-01-10 21:52:38.200,68.89795918367346,3332.816326530612,1493.8163265306123,5552.234042553191,7384.36
2026-01-10 21:52:38.220,70.22448979591837,3293.204081632653,1492.204081632653,5549.382978723404,7385.38
2026-01-10 21:52:38.240,71.55102040816327,3253.591836734694,1490.591836734694,5546.531914893617,7386.4
2026-01-10 21:52:38.260,72.87755102040816,3213.9795918367345,1488.9795918367347,5543.68085106383,7387.42
2026-01-10 21:52:38.280,74.20408163265306,3174.3673469387754,1487.3673469387754,5540.829787234043,7388.44
2026-01-10 21:52:38.300,75.53061224489795,3134.7551020408164,1485.7551020408164,5537.978723404255,7389.46
2026-01-10 21:52:38.320,76.85714285714286,3095.142857142857,1484.142857142857,5535.127659574468,7390.48
2026-01-10 21:52:38.340,78.18367346938776,3055.530612244898,1482.530612244898,5532.276595744681,7391.5
2026-01-10 21:52:38.360,79.51020408163265,3015.918367346939,1480.9183673469388,5529.425531914893,7392.52
2026-01-10 21:52:38.380,80.83673469387755,2976.3061224489793,1479.3061224489795,5526.574468085107,7393.54
2026-01-10 21:52:38.400,82.16326530612244,2936.6938775510203,1477.6938775510205,5523.723404255319,7394.56
2026-01-10 21:52:38.420,83.48979591836735,2897.081632653061,1476.0816326530612,5520.872340425532,7395.58
2026-01-10 21:52:38.440,84.81632653061224,2857.4693877551017,1474.469387755102,5518.021276595745,7396.6
2026-01-10 21:52:38.460,86.14285714285714,2817.8571428571427,1472.857142857143,5515.170212765957,7397.62
2026-01-10 21:52:38.480,87.46938775510205,2778.2448979591836,1471.2448979591836,5512.319148936171,7398.64
2026-01-10 21:52:38.500,88.79591836734693,2738.632653061224,1469.6326530612246,5509.468085106383,7399.66
2026-01-10 21:52:38.520,90.12244897959184,2699.0204081632655,1468.0204081632653,5506.617021276596,7400.68
2026-01-10 21:52:38.540,91.44897959183673,2659.408163265306,1466.408163265306,5503.765957446809,7401.7
2026-01-10 21:52:38.560,92.77551020408163,2619.7959183673465,1464.795918367347,5500.914893617021,7402.72
2026-01-10 21:52:38.580,94.10204081632654,2580.183673469388,1463.1836734693877,5498.063829787234,7403.74
2026-01-10 21:52:38.600,95.42857142857142,2540.5714285714284,1461.5714285714287,5495.212765957447,7404.76
2026-01-10 21:52:38.620,96.75510204081633,2500.9591836734694,1459.9591836734694,5492.36170212766,7405.78
2026-01-10 21:52:38.640,98.08163265306122,2461.3469387755104,1458.3469387755101,5489.510638297872,7406.8
2026-01-10 21:52:38.660,99.40816326530611,2421.734693877551,1456.734693877551,5486.659574468085,7407.82
2026-01-10 21:52:38.680,100.73469387755102,2382.122448979592,1455.1224489795918,5483.808510638298,7408.84
2026-01-10 21:52:38.700,102.06122448979592,2342.5102040816328,1453.5102040816328,5480.95744680851,7409.86
2026-01-10 21:52:38.720,103.38775510204081,2302.8979591836733,1451.8979591836735,5478.106382978724,7410.88
2026-01-10 21:52:38.740,104.71428571428571,2263.285714285714,1450.2857142857142,5475.255319148936,7411.9
2026-01-10 21:52:38.760,106.0408163265306,2223.673469387755,1448.6734693877552,5472.404255319149,7412.92
2026-01-10 21:52:38.780,107.36734693877551,2184.0612244897957,1447.061224489796,5469.553191489362,7413.94
2026-01-10 21:52:38.800,108.6938775510204,2144.4489795918366,1445.4489795918366,5466.702127659574,7414.96
2026-01-10 21:52:38.820,110.0204081632653,2104.8367346938776,1443.8367346938776,5463.851063829788,7415.98
2026-01-10 21:52:38.840,111.34693877551021,2065.224489795918,1442.2244897959183,5461.0,7417.0
2026-01-10 21:52:38.860,112.67346938775509,2025.612244897959,1440.6122448979593,5464.196078431372,7416.862745098039
2026-01-10 21:52:38.880,114.0,1986.0,1439.0,5467.392156862745,7416.725490196079
2026-01-10 21:52:38.900,111.82,2025.06,1481.9,5470.588235294118,7416.588235294118
2026-01-10 21:52:38.920,109.64,2064.12,1524.8,5473.78431372549,7416.450980392156
2026-01-10 21:52:38.940,107.46,2103.18,1567.7,5476.980392156863,7416.313725490196
2026-01-10 21:52:38.960,105.28,2142.24,1610.6,5480.176470588235,7416.176470588235
2026-01-10 21:52:38.980,103.1,2181.3,1653.5,5483.3725490196075,7416.0392156862745
2026-01-10 21:52:39.000,100.92,2220.36,1696.4,5486.568627450981,7415.901960784314
2026-01-10 21:52:39.020,98.74,2259.42,1739.3,5489.764705882353,7415.764705882353
2026-01-10 21:52:39.040,96.56,2298.48,1782.2,5492.9607843137255,7415.6274509803925
2026-01-10 21:52:39.060,94.38,2337.54,1825.1,5496.156862745098,7415.490196078431
2026-01-10 21:52:39.080,92.2,2376.6,1868.0,5499.35294117647,7415.35294117647
2026-01-10 21:52:39.100,90.02,2415.66,1910.9,5502.549019607844,7415.21568627451
2026-01-10 21:52:39.120,87.84,2454.7200000000003,1953.8,5505.745098039216,7415.078431372549
2026-01-10 21:52:39.140,85.66,2493.78,1996.6999999999998,5508.941176470588,7414.941176470588
2026-01-10 21:52:39.160,83.47999999999999,2532.84,2039.6,5512.137254901961,7414.803921568628
2026-01-10 21:52:39.180,81.3,2571.9,2082.5,5515.333333333333,7414.666666666667
2026-01-10 21:52:39.200,79.12,2610.96,2125.4,5518.529411764706,7414.529411764706
2026-01-10 21:52:39.220,76.94,2650.02,2168.3,5521.725490196079,7414.392156862745
2026-01-10 21:52:39.240,74.75999999999999,2689.08,2211.2,5524.921568627451,7414.254901960784
2026-01-10 21:52:39.260,72.58,2728.1400000000003,2254.1,5528.117647058823,7414.117647058823
2026-01-10 21:52:39.280,70.4,2767.2,2297.0,5531.313725490196,7413.980392156863
2026-01-10 21:52:39.300,68.22,2806.26,2339.9,5534.509803921569,7413.843137254902
2026-01-10 21:52:39.320,66.03999999999999,2845.32,2382.8,5537.705882352941,7413.705882352941
2026-01-10 21:52:39.340,63.86,2884.38,2425.7,5540.901960784314,7413.568627450981
2026-01-10 21:52:39.360,61.67999999999999,2923.44,2468.6,5544.098039215686,7413.431372549019
2026-01-10 21:52:39.380,59.49999999999999,2962.5,2511.5,5547.294117647059,7413.294117647059
2026-01-10 21:52:39.400,57.31999999999999,3001.56,2554.3999999999996,5550.490196078432,7413.156862745098
2026-01-10 21:52:39.420,55.13999999999999,3040.62,2597.3,5553.686274509804,7413.019607843137
2026-01-10 21:52:39.440,52.959999999999994,3079.6800000000003,2640.2,5556.882352941177,7412.882352941177
2026-01-10 21:52:39.460,50.779999999999994,3118.74,2683.1,5560.078431372549,7412.745098039216
2026-01-10 21:52:39.480,48.599999999999994,3157.8,2726.0,5563.274509803921,7412.607843137255
2026-01-10 21:52:39.500,46.42,3196.86,2768.8999999999996,5566.470588235294,7412.470588235294
2026-01-10 21:52:39.520,44.239999999999995,3235.92,2811.8,5569.666666666667,7412.333333333333
2026-01-10 21:52:39.540,42.05999999999999,3274.98,2854.7,5572.862745098039,7412.196078431372
2026-01-10 21:52:39.560,39.879999999999995,3314.04,2897.6,5576.058823529412,7412.058823529412
2026-01-10 21:52:39.580,37.69999999999999,3353.1000000000004,2940.5,5579.254901960784,7411.921568627451
2026-01-10 21:52:39.600,35.519999999999996,3392.16,2983.3999999999996,5582.450980392156,7411.78431372549
2026-01-10 21:52:39.620,33.33999999999999,3431.2200000000003,3026.3,5585.64705882353,7411.64705882353
2026-01-10 21:52:39.640,31.159999999999997,3470.28,3069.2,5588.843137254902,7411.509803921569
2026-01-10 21:52:39.660,28.97999999999999,3509.34,3112.1,5592.0392156862745,7411.3725490196075
2026-01-10 21:52:39.680,26.799999999999997,3548.4,3155.0,5595.235294117647,7411.235294117647
2026-01-10 21:52:39.700,24.61999999999999,3587.46,3197.8999999999996,5598.431372549019,7411.098039215686
2026-01-10 21:52:39.720,22.439999999999998,3626.52,3240.8,5601.6274509803925,7410.9607843137255
2026-01-10 21:52:39.740,20.25999999999999,3665.58,3283.7,5604.823529411765,7410.823529411765
2026-01-10 21:52:39.760,18.08,3704.6400000000003,3326.6,5608.019607843137,7410.686274509804
2026-01-10 21:52:39.780,15.899999999999991,3743.7,3369.5,5611.21568627451,7410.549019607844
2026-01-10 21:52:39.800,13.719999999999999,3782.76,3412.3999999999996,5614.411764705882,7410.411764705882
2026-01-10 21:52:39.820,11.539999999999992,3821.82,3455.3,5617.607843137255,7410.274509803921
2026-01-10 21:52:39.840,9.359999999999985,3860.88,3498.2,5620.803921568628,7410.137254901961
2026-01-10 21:52:39.860,7.179999999999993,3899.94,3541.1,5624.0,7410.0
2026-01-10 21:52:39.880,5.0,3939.0,3584.0,5624.9607843137255,7412.64705882353
2026-01-10 21:52:39.900,6.1,3938.76,3584.24,5625.921568627451,7415.294117647059
2026-01-10 21:52:39.920,7.2,3938.52,3584.48,5626.882352941177,7417.941176470588
2026-01-10 21:52:39.940,8.3,3938.28,3584.72,5627.843137254902,7420.588235294118
2026-01-10 21:52:39.960,9.4,3938.04,3584.96,5628.803921568628,7423.235294117647
2026-01-10 21:52:39.980,10.5,3937.8,3585.2,5629.764705882353,7425.882352941177
2026-01-10 21:52:40.000,11.600000000000001,3937.56,3585.44,5630.725490196079,7428.529411764706
2026-01-10 21:52:40.020,12.700000000000001,3937.32,3585.68,5631.686274509804,7431.176470588235
2026-01-10 21:52:40.040,13.8,3937.08,3585.92,5632.64705882353,7433.823529411765
2026-01-10 21:52:40.060,14.9,3936.84,3586.16,5633.607843137255,7436.470588235294
2026-01-10 21:52:40.080,16.0,3936.6,3586.4,5634.568627450981,7439.117647058823
2026-01-10 21:52:40.100,17.1,3936.36,3586.64,5635.529411764706,7441.764705882353
2026-01-10 21:52:40.120,18.200000000000003,3936.12,3586.88,5636.490196078431,7444.411764705882
2026-01-10 21:52:40.140,19.3,3935.88,3587.12,5637.450980392156,7447.058823529412
2026-01-10 21:52:40.160,20.400000000000002,3935.64,3587.36,5638.411764705882,7449.705882352941
2026-01-10 21:52:40.180,21.5,3935.4,3587.6,5639.3725490196075,7452.35294117647
2026-01-10 21:52:40.200,22.6,3935.16,3587.84,5640.333333333333,7455.0
2026-01-10 21:52:40.220,23.700000000000003,3934.92,3588.08,5641.294117647059,7457.64705882353
2026-01-10 21:52:40.240,24.8,3934.68,3588.32,5642.254901960784,7460.294117647059
2026-01-10 21:52:40.260,25.900000000000002,3934.44,3588.56,5643.21568627451,7462.941176470588
2026-01-10 21:52:40.280,27.0,3934.2,3588.8,5644.176470588235,7465.588235294118
2026-01-10 21:52:40.300,28.1,3933.96,3589.04,5645.137254901961,7468.235294117647
2026-01-10 21:52:40.320,29.200000000000003,3933.72,3589.28,5646.098039215686,7470.882352941177
2026-01-10 21:52:40.340,30.3,3933.48,3589.52,5647.058823529412,7473.529411764706
2026-01-10 21:52:40.360,31.400000000000002,3933.24,3589.76,5648.019607843137,7476.176470588235
2026-01-10 21:52:40.380,32.5,3933.0,3590.0,5648.980392156863,7478.823529411765
2026-01-10 21:52:40.400,33.6,3932.76,3590.24,5649.941176470588,7481.470588235294
2026-01-10 21:52:40.420,34.7,3932.52,3590.48,5650.901960784314,7484.117647058823
2026-01-10 21:52:40.440,35.800000000000004,3932.28,3590.72,5651.862745098039,7486.764705882353
2026-01-10 21:52:40.460,36.900000000000006,3932.04,3590.96,5652.823529411765,7489.411764705882
2026-01-10 21:52:40.480,38.0,3931.8,3591.2,5653.78431372549,7492.058823529412
2026-01-10 21:52:40.500,39.1,3931.56,3591.44,5654.745098039216,7494.705882352941
2026-01-10 21:52:40.520,40.2,3931.32,3591.68,5655.705882352941,7497.35294117647
2026-01-10 21:52:40.540,41.300000000000004,3931.08,3591.92,5656.666666666667,7500.0
2026-01-10 21:52:40.560,42.400000000000006,3930.84,3592.16,5657.6274509803925,7502.64705882353
2026-01-10 21:52:40.580,43.5,3930.6,3592.4,5658.588235294118,7505.294117647059
2026-01-10 21:52:40.600,44.6,3930.36,3592.64,5659.549019607844,7507.941176470588
2026-01-10 21:52:40.620,45.7,3930.12,3592.88,5660.509803921569,7510.588235294118
2026-01-10 21:52:40.640,46.800000000000004,3929.88,3593.12,5661.470588235294,7513.235294117647
2026-01-10 21:52:40.660,47.900000000000006,3929.64,3593.36,5662.431372549019,7515.882352941177
2026-01-10 21:52:40.680,49.0,3929.4,3593.6,5663.392156862745,7518.529411764706
2026-01-10 21:52:40.700,50.1,3929.16,3593.84,5664.35294117647,7521.176470588235
2026-01-10 21:52:40.720,51.2,3928.92,3594.08,5665.313725490196,7523.823529411765
2026-01-10 21:52:40.740,52.300000000000004,3928.68,3594.32,5666.274509803921,7526.470588235294
2026-01-10 21:52:40.760,53.400000000000006,3928.44,3594.56,5667.235294117647,7529.117647058823
2026-01-10 21:52:40.780,54.50000000000001,3928.2,3594.8,5668.196078431372,7531.764705882353
2026-01-10 21:52:40.800,55.6,3927.96,3595.04,5669.156862745098,7534.411764705882
2026-01-10 21:52:40.820,56.7,3927.72,3595.28,5670.117647058823,7537.058823529412
2026-01-10 21:52:40.840,57.800000000000004,3927.48,3595.52,5671.078431372549,7539.705882352941
2026-01-10 21:52:40.860,58.900000000000006,3927.24,3595.76,5672.0392156862745,7542.35294117647
2026-01-10 21:52:40.880,60.0,3927.0,3596.0,5673.0,7545.0
2026-01-10 21:52:40.900,98.90196078431373,3926.823529411765,3555.235294117647,5671.078431372549,7544.862745098039
2026-01-10 21:52:40.920,137.80392156862746,3926.6470588235293,3514.470588235294,5669.156862745098,7544.725490196079
2026-01-10 21:52:40.940,176.70588235294116,3926.470588235294,3473.705882352941,5667.235294117647,7544.588235294118
2026-01-10 21:52:40.960,215.6078431372549,3926.294117647059,3432.9411764705883,5665.313725490196,7544.450980392156
2026-01-10 21:52:40.980,254.50980392156862,3926.1176470588234,3392.176470588235,5663.392156862745,7544.313725490196
2026-01-10 21:52:41.000,293.4117647058823,3925.9411764705883,3351.4117647058824,5661.470588235294,7544.176470588235
2026-01-10 21:52:41.020,332.3137254901961,3925.764705882353,3310.6470588235293,5659.549019607844,7544.0392156862745
2026-01-10 21:52:41.040,371.2156862745098,3925.5882352941176,3269.8823529411766,5657.6274509803925,7543.901960784314
2026-01-10 21:52:41.060,410.1176470588235,3925.4117647058824,3229.1176470588234,5655.705882352941,7543.764705882353
2026-01-10 21:52:41.080,449.01960784313724,3925.235294117647,3188.3529411764707,5653.78431372549,7543.6274509803925
2026-01-10 21:52:41.100,487.92156862745094,3925.0588235294117,3147.5882352941176,5651.862745098039,7543.490196078431
2026-01-10 21:52:41.120,526.8235294117646,3924.8823529411766,3106.823529411765,5649.941176470588,7543.35294117647
2026-01-10 21:52:41.140,565.7254901960785,3924.705882352941,3066.0588235294117,5648.019607843137,7543.21568627451
2026-01-10 21:52:41.160,604.6274509803922,3924.529411764706,3025.2941176470586,5646.098039215686,7543.078431372549
2026-01-10 21:52:41.180,643.5294117647059,3924.3529411764707,2984.529411764706,5644.176470588235,7542.941176470588
2026-01-10 21:52:41.200,682.4313725490196,3924.176470588235,2943.764705882353,5642.254901960784,7542.803921568628
2026-01-10 21:52:41.220,721.3333333333333,3924.0,2903.0,5640.333333333333,7542.666666666667
2026-01-10 21:52:41.240,760.235294117647,3923.823529411765,2862.235294117647,5638.411764705882,7542.529411764706
2026-01-10 21:52:41.260,799.1372549019608,3923.6470588235293,2821.470588235294,5636.490196078431,7542.392156862745
2026-01-10 21:52:41.280,838.0392156862745,3923.470588235294,2780.7058823529414,5634.568627450981,7542.254901960784
2026-01-10 21:52:41.300,876.9411764705882,3923.294117647059,2739.9411764705883,5632.64705882353,7542.117647058823
2026-01-10 21:52:41.320,915.8431372549019,3923.1176470588234,2699.176470588235,5630.725490196079,7541.980392156863
2026-01-10 21:52:41.340,954.7450980392156,3922.9411764705883,2658.4117647058824,5628.803921568628,7541.843137254902
2026-01-10 21:52:41.360,993.6470588235293,3922.764705882353,2617.6470588235293,5626.882352941177,7541.705882352941
2026-01-10 21:52:41.380,1032.549019607843,3922.5882352941176,2576.8823529411766,5624.9607843137255,7541.568627450981
2026-01-10 21:52:41.400,1071.450980392157,3922.4117647058824,2536.1176470588234,5623.0392156862745,7541.431372549019
2026-01-10 21:52:41.420,1110.3529411764705,3922.235294117647,2495.3529411764703,5621.117647058823,7541.294117647059
2026-01-10 21:52:41.440,1149.2549019607843,3922.0588235294117,2454.5882352941176,5619.196078431372,7541.156862745098
2026-01-10 21:52:41.460,1188.156862745098,3921.8823529411766,2413.823529411765,5617.274509803921,7541.019607843137
2026-01-10 21:52:41.480,1227.0588235294117,3921.705882352941,2373.0588235294117,5615.35294117647,7540.882352941177
2026-01-10 21:52:41.500,1265.9607843137253,3921.529411764706,2332.2941176470586,5613.431372549019,7540.745098039216
2026-01-10 21:52:41.520,1304.862745098039,3921.3529411764707,2291.529411764706,5611.509803921569,7540.607843137255
2026-01-10 21:52:41.540,1343.764705882353,3921.176470588235,2250.764705882353,5609.588235294118,7540.470588235294
2026-01-10 21:52:41.560,1382.6666666666665,3921.0,2210.0,5607.666666666667,7540.333333333333
2026-01-10 21:52:41.580,1421.5686274509803,3920.823529411765,2169.235294117647,5605.745098039216,7540.196078431372
2026-01-10 21:52:41.600,1460.470588235294,3920.6470588235293,2128.470588235294,5603.823529411765,7540.058823529412
2026-01-10 21:52:41.620,1499.3725490196077,3920.470588235294,2087.7058823529414,5601.901960784314,7539.921568627451
2026-01-10 21:52:41.640,1538.2745098039215,3920.294117647059,2046.9411764705883,5599.980392156863,7539.78431372549
2026-01-10 21:52:41.660,1577.1764705882351,3920.1176470588234,2006.1764705882354,5598.058823529412,7539.64705882353
2026-01-10 21:52:41.680,1616.078431372549,3919.9411764705883,1965.4117647058824,5596.137254901961,7539.509803921569
2026-01-10 21:52:41.700,1654.9803921568625,3919.764705882353,1924.6470588235293,5594.21568627451,7539.3725490196075
2026-01-10 21:52:41.720,1693.8823529411764,3919.5882352941176,1883.8823529411764,5592.294117647059,7539.235294117647
2026-01-10 21:52:41.740,1732.7843137254902,3919.4117647058824,1843.1176470588234,5590.3725490196075,7539.098039215686
2026-01-10 21:52:41.760,1771.6862745098038,3919.235294117647,1802.3529411764705,5588.450980392156,7538.9607843137255
2026-01-10 21:52:41.780,1810.5882352941176,3919.0588235294117,1761.5882352941176,5586.529411764706,7538.823529411765
2026-01-10 21:52:41.800,1849.4901960784312,3918.8823529411766,1720.8235294117646,5584.607843137255,7538.686274509804
2026-01-10 21:52:41.820,1888.392156862745,3918.705882352941,1680.0588235294117,5582.686274509804,7538.549019607844
2026-01-10 21:52:41.840,1927.2941176470586,3918.529411764706,1639.2941176470588,5580.764705882353,7538.411764705882
2026-01-10 21:52:41.860,1966.1960784313724,3918.3529411764707,1598.5294117647059,5578.843137254902,7538.274509803921
2026-01-10 21:52:41.880,2005.0980392156862,3918.176470588235,1557.764705882353,5576.921568627451,7538.137254901961
2026-01-10 21:52:41.900,2044.0,3918.0,1517.0,5575.0,7538.0
2026-01-10 21:52:41.920,2004.0980392156862,3878.901960784314,1558.0588235294117,5575.803921568628,7535.941176470588
2026-01-10 21:52:41.940,1964.1960784313726,3839.8039215686276,1599.1176470588234,5576.607843137255,7533.882352941177
2026-01-10 21:52:41.960,1924.2941176470588,3800.705882352941,1640.1764705882354,5577.411764705882,7531.823529411765
2026-01-10 21:52:41.980,1884.3921568627452,3761.607843137255,1681.235294117647,5578.21568627451,7529.764705882353
2026-01-10 21:52:42.000,1844.4901960784314,3722.5098039215686,1722.2941176470588,5579.019607843137,7527.705882352941
2026-01-10 21:52:42.020,1804.5882352941176,3683.4117647058824,1763.3529411764707,5579.823529411765,7525.64705882353
2026-01-10 21:52:42.040,1764.686274509804,3644.3137254901962,1804.4117647058824,5580.6274509803925,7523.588235294118
2026-01-10 21:52:42.060,1724.7843137254902,3605.2156862745096,1845.4705882352941,5581.431372549019,7521.529411764706
2026-01-10 21:52:42.080,1684.8823529411766,3566.1176470588234,1886.5294117647059,5582.235294117647,7519.470588235294
2026-01-10 21:52:42.100,1644.9803921568628,3527.0196078431372,1927.5882352941176,5583.0392156862745,7517.411764705882
2026-01-10 21:52:42.120,1605.078431372549,3487.921568627451,1968.6470588235295,5583.843137254902,7515.35294117647
2026-01-10 21:52:42.140,1565.1764705882354,3448.823529411765,2009.7058823529412,5584.64705882353,7513.294117647059
2026-01-10 21:52:42.160,1525.2745098039218,3409.725490196078,2050.764705882353,5585.450980392156,7511.235294117647
2026-01-10 21:52:42.180,1485.372549019608,3370.627450980392,2091.823529411765,5586.254901960784,7509.176470588235
2026-01-10 21:52:42.200,1445.4705882352941,3331.529411764706,2132.8823529411766,5587.058823529412,7507.117647058823
2026-01-10 21:52:42.220,1405.5686274509803,3292.4313725490197,2173.9411764705883,5587.862745098039,7505.058823529412
2026-01-10 21:52:42.240,1365.6666666666667,3253.333333333333,2215.0,5588.666666666667,7503.0
2026-01-10 21:52:42.260,1325.7647058823532,3214.235294117647,2256.0588235294117,5589.470588235294,7500.941176470588
2026-01-10 21:52:42.280,1285.8627450980393,3175.1372549019607,2297.1176470588234,5590.274509803921,7498.882352941177
2026-01-10 21:52:42.300,1245.9607843137255,3136.0392156862745,2338.176470588235,5591.078431372549,7496.823529411765
2026-01-10 21:52:42.320,1206.0588235294117,3096.9411764705883,2379.235294117647,5591.882352941177,7494.764705882353
2026-01-10 21:52:42.340,1166.1568627450981,3057.843137254902,2420.294117647059,5592.686274509804,7492.705882352941
2026-01-10 21:52:42.360,1126.2549019607845,3018.7450980392155,2461.3529411764707,5593.490196078431,7490.64705882353
2026-01-10 21:52:42.380,1086.3529411764707,2979.6470588235293,2502.4117647058824,5594.294117647059,7488.588235294118
2026-01-10 21:52:42.400,1046.450980392157,2940.549019607843,2543.470588235294,5595.098039215686,7486.529411764706
2026-01-10 21:52:42.420,1006.5490196078433,2901.450980392157,2584.529411764706,5595.901960784314,7484.470588235294
2026-01-10 21:52:42.440,966.6470588235295,2862.3529411764703,2625.588235294118,5596.705882352941,7482.411764705882
2026-01-10 21:52:42.460,926.7450980392157,2823.254901960784,2666.6470588235297,5597.509803921569,7480.35294117647
2026-01-10 21:52:42.480,886.8431372549021,2784.156862745098,2707.7058823529414,5598.313725490196,7478.294117647059
2026-01-10 21:52:42.500,846.9411764705883,2745.0588235294117,2748.764705882353,5599.117647058823,7476.235294117647
2026-01-10 21:52:42.520,807.0392156862747,2705.9607843137255,2789.823529411765,5599.921568627451,7474.176470588235
2026-01-10 21:52:42.540,767.1372549019609,2666.8627450980393,2830.8823529411766,5600.725490196079,7472.117647058823
2026-01-10 21:52:42.560,727.2352941176471,2627.764705882353,2871.9411764705883,5601.529411764706,7470.058823529412
2026-01-10 21:52:42.580,687.3333333333335,2588.6666666666665,2913.0,5602.333333333333,7468.0
2026-01-10 21:52:42.600,647.4313725490197,2549.5686274509803,2954.0588235294117,5603.137254901961,7465.941176470588
2026-01-10 21:52:42.620,607.5294117647061,2510.4705882352937,2995.1176470588234,5603.941176470588,7463.882352941177
2026-01-10 21:52:42.640,567.6274509803923,2471.3725490196075,3036.176470588235,5604.745098039216,7461.823529411765
2026-01-10 21:52:42.660,527.7254901960785,2432.2745098039213,3077.2352941176473,5605.549019607844,7459.764705882353
2026-01-10 21:52:42.680,487.82352941176487,2393.176470588235,3118.294117647059,5606.35294117647,7457.705882352941
2026-01-10 21:52:42.700,447.92156862745105,2354.078431372549,3159.3529411764707,5607.156862745098,7455.64705882353
2026-01-10 21:52:42.720,408.01960784313746,2314.9803921568628,3200.4117647058824,5607.9607843137255,7453.588235294118
2026-01-10 21:52:42.740,368.11764705882365,2275.8823529411766,3241.470588235294,5608.764705882353,7451.529411764706
2026-01-10 21:52:42.760,328.21568627450984,2236.7843137254904,3282.5294117647063,5609.568627450981,7449.470588235294
2026-01-10 21:52:42.780,288.31372549019625,2197.6862745098038,3323.588235294118,5610.3725490196075,7447.411764705882
2026-01-10 21:52:42.800,248.41176470588243,2158.5882352941176,3364.6470588235297,5611.176470588235,7445.35294117647
2026-01-10 21:52:42.820,208.50980392156885,2119.490196078431,3405.7058823529414,5611.980392156863,7443.294117647059
2026-01-10 21:52:42.840,168.60784313725503,2080.3921568627447,3446.764705882353,5612.78431372549,7441.235294117647
2026-01-10 21:52:42.860,128.70588235294144,2041.2941176470586,3487.823529411765,5613.588235294118,7439.176470588235
2026-01-10 21:52:42.880,88.80392156862763,2002.1960784313724,3528.8823529411766,5614.392156862745,7437.117647058823
2026-01-10 21:52:42.900,48.901960784313815,1963.0980392156862,3569.9411764705883,5615.196078431372,7435.058823529412
2026-01-10 21:52:42.920,9.0,1924.0,3611.0,5616.0,7433.0
2026-01-10 21:52:42.940,9.16,1923.96,3610.68,5616.68,7434.66
2026-01-10 21:52:42.960,9.32,1923.92,3610.36,5617.36,7436.32
2026-01-10 21:52:42.980,9.48,1923.88,3610.04,5618.04,7437.98
2026-01-10 21:52:43.000,9.64,1923.84,3609.72,5618.72,7439.64
2026-01-10 21:52:43.020,9.8,1923.8,3609.4,5619.4,7441.3
2026-01-10 21:52:43.040,9.96,1923.76,3609.08,5620.08,7442.96
2026-01-10 21:52:43.060,10.120000000000001,1923.72,3608.76,5620.76,7444.62
2026-01-10 21:52:43.080,10.28,1923.68,3608.44,5621.44,7446.28
2026-01-10 21:52:43.100,10.44,1923.64,3608.12,5622.12,7447.94
2026-01-10 21:52:43.120,10.6,1923.6,3607.8,5622.8,7449.6
2026-01-10 21:52:43.140,10.76,1923.56,3607.48,5623.48,7451.26
2026-01-10 21:52:43.160,10.92,1923.52,3607.16,5624.16,7452.92
2026-01-10 21:52:43.180,11.08,1923.48,3606.84,5624.84,7454.58
2026-01-10 21:52:43.200,11.24,1923.44,3606.52,5625.52,7456.24
2026-01-10 21:52:43.220,11.4,1923.4,3606.2,5626.2,7457.9
2026-01-10 21:52:43.240,11.56,1923.36,3605.88,5626.88,7459.56
2026-01-10 21:52:43.260,11.72,1923.32,3605.56,5627.56,7461.22
2026-01-10 21:52:43.280,11.879999999999999,1923.28,3605.24,5628.24,7462.88
2026-01-10 21:52:43.300,12.04,1923.24,3604.92,5628.92,7464.54
2026-01-10 21:52:43.320,12.2,1923.2,3604.6,5629.6,7466.2
2026-01-10 21:52:43.340,12.36,1923.16,3604.28,5630.28,7467.86
2026-01-10 21:52:43.360,12.52,1923.12,3603.96,5630.96,7469.52
2026-01-10 21:52:43.380,12.68,1923.08,3603.64,5631.64,7471.18
2026-01-10 21:52:43.400,12.84,1923.04,3603.32,5632.32,7472.84
2026-01-10 21:52:43.420,13.0,1923.0,3603.0,5633.0,7474.5
2026-01-10 21:52:43.440,13.16,1922.96,3602.68,5633.68,7476.16
2026-01-10 21:52:43.460,13.32,1922.92,3602.36,5634.36,7477.82
2026-01-10 21:52:43.480,13.48,1922.88,3602.04,5635.04,7479.48
2026-01-10 21:52:43.500,13.64,1922.84,3601.72,5635.72,7481.14
2026-01-10 21:52:43.520,13.8,1922.8,3601.4,5636.4,7482.8
2026-01-10 21:52:43.540,13.96,1922.76,3601.08,5637.08,7484.46
2026-01-10 21:52:43.560,14.120000000000001,1922.72,3600.76,5637.76,7486.12
2026-01-10 21:52:43.580,14.280000000000001,1922.68,3600.44,5638.44,7487.78
2026-01-10 21:52:43.600,14.440000000000001,1922.64,3600.12,5639.12,7489.44
2026-01-10 21:52:43.620,14.600000000000001,1922.6,3599.8,5639.8,7491.1
2026-01-10 21:52:43.640,14.76,1922.56,3599.48,5640.48,7492.76
2026-01-10 21:52:43.660,14.92,1922.52,3599.16,5641.16,7494.42
2026-01-10 21:52:43.680,15.08,1922.48,3598.84,5641.84,7496.08
2026-01-10 21:52:43.700,15.24,1922.44,3598.52,5642.52,7497.74
2026-01-10 21:52:43.720,15.4,1922.4,3598.2,5643.2,7499.4
2026-01-10 21:52:43.740,15.56,1922.36,3597.88,5643.88,7501.06
2026-01-10 21:52:43.760,15.719999999999999,1922.32,3597.56,5644.56,7502.72
2026-01-10 21:52:43.780,15.879999999999999,1922.28,3597.24,5645.24,7504.38
2026-01-10 21:52:43.800,16.04,1922.24,3596.92,5645.92,7506.04
2026-01-10 21:52:43.820,16.2,1922.2,3596.6,5646.6,7507.7
2026-01-10 21:52:43.840,16.36,1922.16,3596.28,5647.28,7509.36
2026-01-10 21:52:43.860,16.52,1922.12,3595.96,5647.96,7511.02
2026-01-10 21:52:43.880,16.68,1922.08,3595.64,5648.64,7512.68
2026-01-10 21:52:43.900,16.84,1922.04,3595.32,5649.32,7514.34
2026-01-10 21:52:43.920,17.0,1922.0,3595.0,5650.0,7516.0
2026-01-10 21:52:43.940,-21.340000000000003,1962.84,3595.02,5649.32,7515.24
2026-01-10 21:52:43.960,-59.68000000000001,2003.68,3595.04,5648.64,7514.48
2026-01-10 21:52:43.980,-98.02000000000001,2044.52,3595.06,5647.96,7513.72
2026-01-10 21:52:44.000,-136.36,2085.36,3595.08,5647.28,7512.96
2026-01-10 21:52:44.020,-174.70000000000002,2126.2,3595.1,5646.6,7512.2
2026-01-10 21:52:44.040,-213.04000000000002,2167.04,3595.12,5645.92,7511.44
2026-01-10 21:52:44.060,-251.38,2207.88,3595.14,5645.24,7510.68
2026-01-10 21:52:44.080,-289.72,2248.7200000000003,3595.16,5644.56,7509.92
2026-01-10 21:52:44.100,-328.06000000000006,2289.56,3595.18,5643.88,7509.16
2026-01-10 21:52:44.120,-366.40000000000003,2330.4,3595.2,5643.2,7508.4
2026-01-10 21:52:44.140,-404.74,2371.24,3595.22,5642.52,7507.64
2026-01-10 21:52:44.160,-443.08000000000004,2412.08,3595.24,5641.84,7506.88
2026-01-10 21:52:44.180,-481.4200000000001,2452.92,3595.26,5641.16,7506.12
2026-01-10 21:52:44.200,-519.76,2493.76,3595.28,5640.48,7505.36
2026-01-10 21:52:44.220,-558.1,2534.6,3595.3,5639.8,7504.6
2026-01-10 21:52:44.240,-596.44,2575.44,3595.32,5639.12,7503.84
2026-01-10 21:52:44.260,-634.7800000000001,2616.28,3595.34,5638.44,7503.08
2026-01-10 21:52:44.280,-673.1200000000001,2657.12,3595.36,5637.76,7502.32
2026-01-10 21:52:44.300,-711.46,2697.96,3595.38,5637.08,7501.56
2026-01-10 21:52:44.320,-749.8000000000001,2738.8,3595.4,5636.4,7500.8
2026-01-10 21:52:44.340,-788.1400000000001,2779.6400000000003,3595.42,5635.72,7500.04
2026-01-10 21:52:44.360,-826.48,2820.48,3595.44,5635.04,7499.28
2026-01-10 21:52:44.380,-864.82,2861.32,3595.46,5634.36,7498.52
2026-01-10 21:52:44.400,-903.1600000000001,2902.16,3595.48,5633.68,7497.76
2026-01-10 21:52:44.420,-941.5000000000001,2943.0,3595.5,5633.0,7497.0
2026-01-10 21:52:44.440,-979.8400000000001,2983.84,3595.52,5632.32,7496.24
2026-01-10 21:52:44.460,-1018.1800000000001,3024.6800000000003,3595.54,5631.64,7495.48
2026-01-10 21:52:44.480,-1056.52,3065.52,3595.56,5630.96,7494.72
2026-01-10 21:52:44.500,-1094.8600000000001,3106.36,3595.58,5630.28,7493.96
2026-01-10 21:52:44.520,-1133.2,3147.2,3595.6,5629.6,7493.2
2026-01-10 21:52:44.540,-1171.5400000000002,3188.04,3595.62,5628.92,7492.44
2026-01-10 21:52:44.560,-1209.88,3228.88,3595.64,5628.24,7491.68
2026-01-10 21:52:44.580,-1248.22,3269.7200000000003,3595.66,5627.56,7490.92
2026-01-10 21:52:44.600,-1286.5600000000002,3310.5600000000004,3595.68,5626.88,7490.16
2026-01-10 21:52:44.620,-1324.9,3351.4,3595.7,5626.2,7489.4
2026-01-10 21:52:44.640,-1363.2400000000002,3392.2400000000002,3595.72,5625.52,7488.64
2026-01-10 21:52:44.660,-1401.5800000000002,3433.08,3595.74,5624.84,7487.88
2026-01-10 21:52:44.680,-1439.92,3473.92,3595.76,5624.16,7487.12
2026-01-10 21:52:44.700,-1478.2600000000002,3514.76,3595.78,5623.48,7486.36
2026-01-10 21:52:44.720,-1516.6000000000001,3555.6000000000004,3595.8,5622.8,7485.6
2026-01-10 21:52:44.740,-1554.94,3596.44,3595.82,5622.12,7484.84
2026-01-10 21:52:44.760,-1593.2800000000002,3637.28,3595.84,5621.44,7484.08
2026-01-10 21:52:44.780,-1631.6200000000001,3678.12,3595.86,5620.76,7483.32
2026-01-10 21:52:44.800,-1669.96,3718.96,3595.88,5620.08,7482.56
2026-01-10 21:52:44.820,-1708.3000000000002,3759.8,3595.9,5619.4,7481.8
2026-01-10 21:52:44.840,-1746.64,3800.6400000000003,3595.92,5618.72,7481.04
2026-01-10 21:52:44.860,-1784.9800000000002,3841.4800000000005,3595.94,5618.04,7480.28
2026-01-10 21:52:44.880,-1823.3200000000002,3882.32,3595.96,5617.36,7479.52
2026-01-10 21:52:44.900,-1861.66,3923.16,3595.98,5616.68,7478.76
2026-01-10 21:52:44.920,-1900.0,3964.0,3596.0,5616.0,7478.0
2026-01-10 21:52:44.940,-1862.0576923076924,3924.75,3555.980769230769,5615.725490196079,7473.980392156863
2026-01-10 21:52:44.960,-1824.1153846153845,3885.5,3515.9615384615386,5615.450980392156,7469.9607843137255
2026-01-10 21:52:44.980,-1786.173076923077,3846.25,3475.9423076923076,5615.176470588235,7465.941176470588
2026-01-10 21:52:45.000,-1748.2307692307693,3807.0,3435.923076923077,5614.901960784314,7461.921568627451
2026-01-10 21:52:45.020,-1710.2884615384614,3767.75,3395.903846153846,5614.6274509803925,7457.901960784314
2026-01-10 21:52:45.040,-1672.3461538461538,3728.5,3355.8846153846152,5614.35294117647,7453.882352941177
2026-01-10 21:52:45.060,-1634.4038461538462,3689.25,3315.8653846153848,5614.078431372549,7449.862745098039
2026-01-10 21:52:45.080,-1596.4615384615386,3650.0,3275.846153846154,5613.803921568628,7445.843137254902
2026-01-10 21:52:45.100,-1558.5192307692307,3610.75,3235.826923076923,5613.529411764706,7441.823529411765
2026-01-10 21:52:45.120,-1520.576923076923,3571.5,3195.8076923076924,5613.254901960784,7437.803921568628
2026-01-10 21:52:45.140,-1482.6346153846152,3532.25,3155.7884615384614,5612.980392156863,7433.78431372549
2026-01-10 21:52:45.160,-1444.6923076923076,3493.0,3115.769230769231,5612.705882352941,7429.764705882353
2026-01-10 21:52:45.180,-1406.75,3453.75,3075.75,5612.431372549019,7425.745098039216
2026-01-10 21:52:45.200,-1368.8076923076924,3414.5,3035.7307692307695,5612.156862745098,7421.725490196079
2026-01-10 21:52:45.220,-1330.8653846153848,3375.25,2995.7115384615386,5611.882352941177,7417.705882352941
2026-01-10 21:52:45.240,-1292.923076923077,3336.0,2955.6923076923076,5611.607843137255,7413.686274509804
2026-01-10 21:52:45.260,-1254.980769230769,3296.75,2915.673076923077,5611.333333333333,7409.666666666667
2026-01-10 21:52:45.280,-1217.0384615384614,3257.5,2875.653846153846,5611.058823529412,7405.64705882353
2026-01-10 21:52:45.300,-1179.0961538461538,3218.25,2835.6346153846152,5610.78431372549,7401.6274509803925
2026-01-10 21:52:45.320,-1141.1538461538462,3179.0,2795.6153846153848,5610.509803921569,7397.607843137255
2026-01-10 21:52:45.340,-1103.2115384615386,3139.75,2755.596153846154,5610.235294117647,7393.588235294118
2026-01-10 21:52:45.360,-1065.2692307692307,3100.5,2715.576923076923,5609.9607843137255,7389.568627450981
2026-01-10 21:52:45.380,-1027.326923076923,3061.25,2675.5576923076924,5609.686274509804,7385.549019607844
2026-01-10 21:52:45.400,-989.3846153846154,3022.0,2635.538461538462,5609.411764705882,7381.529411764706
2026-01-10 21:52:45.420,-951.4423076923076,2982.75,2595.519230769231,5609.137254901961,7377.509803921569
2026-01-10 21:52:45.440,-913.5,2943.5,2555.5,5608.862745098039,7373.490196078432
2026-01-10 21:52:45.460,-875.5576923076924,2904.25,2515.4807692307695,5608.588235294118,7369.470588235294
2026-01-10 21:52:45.480,-837.6153846153845,2865.0,2475.4615384615386,5608.313725490196,7365.450980392156
2026-01-10 21:52:45.500,-799.6730769230769,2825.75,2435.4423076923076,5608.0392156862745,7361.431372549019
2026-01-10 21:52:45.520,-761.7307692307693,2786.5,2395.423076923077,5607.764705882353,7357.411764705882
2026-01-10 21:52:45.540,-723.7884615384614,2747.25,2355.403846153846,5607.490196078431,7353.392156862745
2026-01-10 21:52:45.560,-685.8461538461538,2708.0,2315.3846153846152,5607.21568627451,7349.3725490196075
2026-01-10 21:52:45.580,-647.9038461538462,2668.75,2275.3653846153848,5606.941176470588,7345.35294117647
2026-01-10 21:52:45.600,-609.9615384615383,2629.5,2235.3461538461543,5606.666666666667,7341.333333333333
2026-01-10 21:52:45.620,-572.0192307692307,2590.25,2195.326923076923,5606.392156862745,7337.313725490196
2026-01-10 21:52:45.640,-534.0769230769231,2551.0,2155.3076923076924,5606.117647058823,7333.294117647059
2026-01-10 21:52:45.660,-496.13461538461524,2511.75,2115.288461538462,5605.843137254902,7329.274509803921
2026-01-10 21:52:45.680,-458.1923076923076,2472.5,2075.269230769231,5605.568627450981,7325.254901960784
2026-01-10 21:52:45.700,-420.25,2433.25,2035.25,5605.294117647059,7321.235294117647
2026-01-10 21:52:45.720,-382.3076923076924,2394.0,1995.2307692307693,5605.019607843137,7317.21568627451
2026-01-10 21:52:45.740,-344.3653846153845,2354.75,1955.2115384615386,5604.745098039216,7313.196078431372
2026-01-10 21:52:45.760,-306.4230769230769,2315.5,1915.1923076923078,5604.470588235294,7309.176470588235
2026-01-10 21:52:45.780,-268.4807692307693,2276.25,1875.1730769230771,5604.196078431372,7305.156862745098
2026-01-10 21:52:45.800,-230.53846153846143,2237.0,1835.1538461538462,5603.921568627451,7301.137254901961
2026-01-10 21:52:45.820,-192.5961538461538,2197.75,1795.1346153846155,5603.64705882353,7297.117647058823
2026-01-10 21:52:45.840,-154.6538461538462,2158.5,1755.1153846153848,5603.3725490196075,7293.098039215686
2026-01-10 21:52:45.860,-116.71153846153834,2119.25,1715.096153846154,5603.098039215686,7289.078431372549
2026-01-10 21:52:45.880,-78.76923076923072,2080.0,1675.0769230769233,5602.823529411765,7285.058823529412
2026-01-10 21:52:45.900,-40.826923076923094,2040.75,1635.0576923076924,5602.549019607844,7281.0392156862745
2026-01-10 21:52:45.920,-2.8846153846152447,2001.5,1595.0384615384617,5602.274509803921,7277.019607843137
2026-01-10 21:52:45.940,35.05769230769238,1962.25,1555.019230769231,5602.0,7273.0
2026-01-10 21:52:45.960,73.0,1923.0,1515.0,5600.782608695652,7273.54347826087
2026-01-10 21:52:45.980,116.0,1966.8,1561.8444444444444,5599.565217391304,7274.086956521739
2026-01-10 21:52:46.000,159.0,2010.6,1608.6888888888889,5598.347826086957,7274.630434782609
2026-01-10 21:52:46.020,202.0,2054.4,1655.5333333333333,5597.130434782609,7275.173913043478
2026-01-10 21:52:46.040,245.0,2098.2,1702.3777777777777,5595.913043478261,7275.717391304348
2026-01-10 21:52:46.060,288.0,2142.0,1749.2222222222222,5594.695652173913,7276.260869565217
2026-01-10 21:52:46.080,331.0,2185.8,1796.0666666666666,5593.478260869565,7276.804347826087
2026-01-10 21:52:46.100,374.0,2229.6,1842.911111111111,5592.260869565217,7277.347826086957
2026-01-10 21:52:46.120,417.0,2273.4,1889.7555555555555,5591.04347826087,7277.891304347826
2026-01-10 21:52:46.140,460.0,2317.2,1936.6,5589.826086956522,7278.434782608696
2026-01-10 21:52:46.160,503.0,2361.0,1983.4444444444443,5588.608695652174,7278.978260869565
2026-01-10 21:52:46.180,546.0,2404.8,2030.2888888888888,5587.391304347826,7279.521739130435
2026-01-10 21:52:46.200,589.0,2448.6,2077.133333333333,5586.173913043478,7280.065217391304
2026-01-10 21:52:46.220,632.0,2492.4,2123.9777777777776,5584.95652173913,7280.608695652174
2026-01-10 21:52:46.240,675.0,2536.2,2170.822222222222,5583.739130434783,7281.152173913043
2026-01-10 21:52:46.260,718.0,2580.0,2217.6666666666665,5582.521739130435,7281.695652173913
2026-01-10 21:52:46.280,761.0,2623.8,2264.511111111111,5581.304347826087,7282.239130434783
2026-01-10 21:52:46.300,804.0,2667.6,2311.3555555555554,5580.086956521739,7282.782608695652
2026-01-10 21:52:46.320,847.0,2711.4,2358.2,5578.869565217391,7283.326086956522
2026-01-10 21:52:46.340,890.0,2755.2,2405.0444444444443,5577.652173913043,7283.869565217391
2026-01-10 21:52:46.360,933.0,2799.0,2451.8888888888887,5576.434782608696,7284.413043478261
2026-01-10 21:52:46.380,976.0,2842.8,2498.733333333333,5575.217391304348,7284.95652173913
2026-01-10 21:52:46.400,1019.0,2886.6,2545.5777777777776,5574.0,7285.5
2026-01-10 21:52:46.420,1062.0,2930.4,2592.4222222222224,5572.782608695652,7286.04347826087
2026-01-10 21:52:46.440,1105.0,2974.2,2639.2666666666664,5571.565217391304,7286.586956521739
2026-01-10 21:52:46.460,1148.0,3018.0,2686.1111111111113,5570.347826086957,7287.130434782609
2026-01-10 21:52:46.480,1191.0,3061.8,2732.9555555555553,5569.130434782609,7287.673913043478
2026-01-10 21:52:46.500,1234.0,3105.6,2779.8,5567.913043478261,7288.217391304348
2026-01-10 21:52:46.520,1277.0,3149.3999999999996,2826.644444444444,5566.695652173913,7288.760869565217
2026-01-10 21:52:46.540,1320.0,3193.2,2873.488888888889,5565.478260869565,7289.304347826087
2026-01-10 21:52:46.560,1363.0,3237.0,2920.333333333333,5564.260869565217,7289.847826086957
2026-01-10 21:52:46.580,1406.0,3280.8,2967.177777777778,5563.04347826087,7290.391304347826
2026-01-10 21:52:46.600,1449.0,3324.6,3014.022222222222,5561.826086956522,7290.934782608696
2026-01-10 21:52:46.620,1492.0,3368.3999999999996,3060.866666666667,5560.608695652174,7291.478260869565
2026-01-10 21:52:46.640,1535.0,3412.2,3107.7111111111108,5559.391304347826,7292.021739130435
2026-01-10 21:52:46.660,1578.0,3456.0,3154.5555555555557,5558.173913043478,7292.565217391304
2026-01-10 21:52:46.680,1621.0,3499.8,3201.3999999999996,5556.95652173913,7293.108695652174
2026-01-10 21:52:46.700,1664.0,3543.6,3248.2444444444445,5555.739130434783,7293.652173913043
2026-01-10 21:52:46.720,1707.0,3587.3999999999996,3295.0888888888885,5554.521739130435,7294.195652173913
2026-01-10 21:52:46.740,1750.0,3631.2,3341.9333333333334,5553.304347826087,7294.739130434783
2026-01-10 21:52:46.760,1793.0,3675.0,3388.7777777777774,5552.086956521739,7295.282608695652
2026-01-10 21:52:46.780,1836.0,3718.8,3435.6222222222223,5550.869565217391,7295.826086956522
2026-01-10 21:52:46.800,1879.0,3762.6,3482.4666666666662,5549.652173913043,7296.369565217391
2026-01-10 21:52:46.820,1922.0,3806.3999999999996,3529.311111111111,5548.434782608696,7296.913043478261
2026-01-10 21:52:46.840,1965.0,3850.2,3576.1555555555556,5547.217391304348,7297.45652173913
2026-01-10 21:52:46.860,2008.0,3894.0,3623.0,5546.0,7298.0
2026-01-10 21:52:46.880,2008.6,3894.1,3623.42,5549.56,7301.36
2026-01-10 21:52:46.900,2009.2,3894.2,3623.84,5553.12,7304.72
2026-01-10 21:52:46.920,2009.8,3894.3,3624.26,5556.68,7308.08
2026-01-10 21:52:46.940,2010.4,3894.4,3624.68,5560.24,7311.44
2026-01-10 21:52:46.960,2011.0,3894.5,3625.1,5563.8,7314.8
2026-01-10 21:52:46.980,2011.6,3894.6,3625.52,5567.36,7318.16
2026-01-10 21:52:47.000,2012.2,3894.7,3625.94,5570.92,7321.52
2026-01-10 21:52:47.020,2012.8,3894.8,3626.36,5574.48,7324.88
2026-01-10 21:52:47.040,2013.4,3894.9,3626.78,5578.04,7328.24
2026-01-10 21:52:47.060,2014.0,3895.0,3627.2,5581.6,7331.6
2026-01-10 21:52:47.080,2014.6,3895.1,3627.62,5585.16,7334.96
2026-01-10 21:52:47.100,2015.2,3895.2,3628.04,5588.72,7338.32
2026-01-10 21:52:47.120,2015.8,3895.3,3628.46,5592.28,7341.68
2026-01-10 21:52:47.140,2016.4,3895.4,3628.88,5595.84,7345.04
2026-01-10 21:52:47.160,2017.0,3895.5,3629.3,5599.4,7348.4
2026-01-10 21:52:47.180,2017.6,3895.6,3629.72,5602.96,7351.76
2026-01-10 21:52:47.200,2018.2,3895.7,3630.14,5606.52,7355.12
2026-01-10 21:52:47.220,2018.8,3895.8,3630.56,5610.08,7358.48
2026-01-10 21:52:47.240,2019.4,3895.9,3630.98,5613.64,7361.84
2026-01-10 21:52:47.260,2020.0,3896.0,3631.4,5617.2,7365.2
2026-01-10 21:52:47.280,2020.6,3896.1,3631.82,5620.76,7368.56
2026-01-10 21:52:47.300,2021.2,3896.2,3632.24,5624.32,7371.92
2026-01-10 21:52:47.320,2021.8,3896.3,3632.66,5627.88,7375.28
2026-01-10 21:52:47.340,2022.4,3896.4,3633.08,5631.44,7378.64
2026-01-10 21:52:47.360,2023.0,3896.5,3633.5,5635.0,7382.0
2026-01-10 21:52:47.380,2023.6,3896.6,3633.92,5638.56,7385.36
2026-01-10 21:52:47.400,2024.2,3896.7,3634.34,5642.12,7388.72
2026-01-10 21:52:47.420,2024.8,3896.8,3634.76,5645.68,7392.08
2026-01-10 21:52:47.440,2025.4,3896.9,3635.18,5649.24,7395.44
2026-01-10 21:52:47.460,2026.0,3897.0,3635.6,5652.8,7398.8
2026-01-10 21:52:47.480,2026.6,3897.1,3636.02,5656.36,7402.16
2026-01-10 21:52:47.500,2027.2,3897.2,3636.44,5659.92,7405.52
2026-01-10 21:52:47.520,2027.8,3897.3,3636.86,5663.48,7408.88
2026-01-10 21:52:47.540,2028.4,3897.4,3637.28,5667.04,7412.24
2026-01-10 21:52:47.560,2029.0,3897.5,3637.7,5670.6,7415.6
2026-01-10 21:52:47.580,2029.6,3897.6,3638.12,5674.16,7418.96
2026-01-10 21:52:47.600,2030.2,3897.7,3638.54,5677.72,7422.32
2026-01-10 21:52:47.620,2030.8,3897.8,3638.96,5681.28,7425.68
2026-01-10 21:52:47.640,2031.4,3897.9,3639.38,5684.84,7429.04
2026-01-10 21:52:47.660,2032.0,3898.0,3639.8,5688.4,7432.4
2026-01-10 21:52:47.680,2032.6,3898.1,3640.22,5691.96,7435.76
2026-01-10 21:52:47.700,2033.2,3898.2,3640.64,5695.52,7439.12
2026-01-10 21:52:47.720,2033.8,3898.3,3641.06,5699.08,7442.48
2026-01-10 21:52:47.740,2034.4,3898.4,3641.48,5702.64,7445.84
2026-01-10 21:52:47.760,2035.0,3898.5,3641.9,5706.2,7449.2
2026-01-10 21:52:47.780,2035.6,3898.6,3642.32,5709.76,7452.56
2026-01-10 21:52:47.800,2036.2,3898.7,3642.74,5713.32,7455.92
2026-01-10 21:52:47.820,2036.8,3898.8,3643.16,5716.88,7459.28
2026-01-10 21:52:47.840,2037.4,3898.9,3643.58,5720.44,7462.64
2026-01-10 21:52:47.860,2038.0,3899.0,3644.0,5724.0,7466.0
2026-01-10 21:52:47.880,2069.705882352941,3860.8823529411766,3645.1960784313724,5722.3725490196075,7459.509803921569
2026-01-10 21:52:47.900,2101.4117647058824,3822.764705882353,3646.392156862745,5720.745098039216,7453.019607843137
2026-01-10 21:52:47.920,2133.1176470588234,3784.6470588235293,3647.5882352941176,5719.117647058823,7446.529411764706
2026-01-10 21:52:47.940,2164.823529411765,3746.529411764706,3648.7843137254904,5717.490196078431,7440.0392156862745
2026-01-10 21:52:47.960,2196.529411764706,3708.4117647058824,3649.9803921568628,5715.862745098039,7433.549019607844
2026-01-10 21:52:47.980,2228.235294117647,3670.294117647059,3651.176470588235,5714.235294117647,7427.058823529412
2026-01-10 21:52:48.000,2259.9411764705883,3632.176470588235,3652.372549019608,5712.607843137255,7420.568627450981
2026-01-10 21:52:48.020,2291.6470588235293,3594.0588235294117,3653.5686274509803,5710.980392156863,7414.078431372549
2026-01-10 21:52:48.040,2323.3529411764707,3555.9411764705883,3654.764705882353,5709.35294117647,7407.588235294118
2026-01-10 21:52:48.060,2355.0588235294117,3517.823529411765,3655.9607843137255,5707.725490196079,7401.098039215686
2026-01-10 21:52:48.080,2386.764705882353,3479.705882352941,3657.156862745098,5706.098039215686,7394.607843137255
2026-01-10 21:52:48.100,2418.470588235294,3441.5882352941176,3658.3529411764707,5704.470588235294,7388.117647058823
2026-01-10 21:52:48.120,2450.176470588235,3403.470588235294,3659.549019607843,5702.843137254902,7381.6274509803925
2026-01-10 21:52:48.140,2481.8823529411766,3365.3529411764707,3660.7450980392155,5701.21568627451,7375.137254901961
2026-01-10 21:52:48.160,2513.5882352941176,3327.235294117647,3661.9411764705883,5699.588235294118,7368.64705882353
2026-01-10 21:52:48.180,2545.294117647059,3289.1176470588234,3663.1372549019607,5697.9607843137255,7362.156862745098
2026-01-10 21:52:48.200,2577.0,3251.0,3664.3333333333335,5696.333333333333,7355.666666666667
2026-01-10 21:52:48.220,2608.7058823529414,3212.8823529411766,3665.529411764706,5694.705882352941,7349.176470588235
2026-01-10 21:52:48.240,2640.4117647058824,3174.764705882353,3666.725490196078,5693.078431372549,7342.686274509804
2026-01-10 21:52:48.260,2672.1176470588234,3136.6470588235293,3667.921568627451,5691.450980392156,7336.196078431372
2026-01-10 21:52:48.280,2703.823529411765,3098.529411764706,3669.1176470588234,5689.823529411765,7329.705882352941
2026-01-10 21:52:48.300,2735.529411764706,3060.4117647058824,3670.3137254901962,5688.196078431372,7323.21568627451
2026-01-10 21:52:48.320,2767.235294117647,3022.2941176470586,3671.5098039215686,5686.568627450981,7316.725490196079
2026-01-10 21:52:48.340,2798.9411764705883,2984.176470588235,3672.705882352941,5684.941176470588,7310.235294117647
2026-01-10 21:52:48.360,2830.6470588235293,2946.0588235294117,3673.901960784314,5683.313725490196,7303.745098039216
2026-01-10 21:52:48.380,2862.3529411764707,2907.9411764705883,3675.098039215686,5681.686274509804,7297.254901960784
2026-01-10 21:52:48.400,2894.0588235294117,2869.823529411765,3676.294117647059,5680.058823529412,7290.764705882353
2026-01-10 21:52:48.420,2925.764705882353,2831.7058823529414,3677.4901960784314,5678.431372549019,7284.274509803921
2026-01-10 21:52:48.440,2957.470588235294,2793.5882352941176,3678.6862745098038,5676.803921568628,7277.78431372549
2026-01-10 21:52:48.460,2989.176470588235,2755.470588235294,3679.8823529411766,5675.176470588235,7271.294117647059
2026-01-10 21:52:48.480,3020.8823529411766,2717.3529411764703,3681.078431372549,5673.549019607844,7264.803921568628
2026-01-10 21:52:48.500,3052.5882352941176,2679.235294117647,3682.274509803922,5671.921568627451,7258.313725490196
2026-01-10 21:52:48.520,3084.2941176470586,2641.1176470588234,3683.470588235294,5670.294117647059,7251.823529411765
2026-01-10 21:52:48.540,3116.0,2603.0,3684.6666666666665,5668.666666666667,7245.333333333333
2026-01-10 21:52:48.560,3147.7058823529414,2564.8823529411766,3685.8627450980393,5667.0392156862745,7238.843137254902
2026-01-10 21:52:48.580,3179.4117647058824,2526.764705882353,3687.0588235294117,5665.411764705882,7232.35294117647
2026-01-10 21:52:48.600,3211.1176470588234,2488.6470588235297,3688.254901960784,5663.78431372549,7225.862745098039
2026-01-10 21:52:48.620,3242.823529411765,2450.529411764706,3689.450980392157,5662.156862745098,7219.3725490196075
2026-01-10 21:52:48.640,3274.529411764706,2412.4117647058824,3690.6470588235293,5660.529411764706,7212.882352941177
2026-01-10 21:52:48.660,3306.235294117647,2374.2941176470586,3691.843137254902,5658.901960784314,7206.392156862745
2026-01-10 21:52:48.680,3337.9411764705883,2336.176470588235,3693.0392156862745,5657.274509803921,7199.901960784314
2026-01-10 21:52:48.700,3369.6470588235297,2298.0588235294117,3694.235294117647,5655.64705882353,7193.411764705882
2026-01-10 21:52:48.720,3401.3529411764707,2259.9411764705883,3695.4313725490197,5654.019607843137,7186.921568627451
2026-01-10 21:52:48.740,3433.0588235294117,2221.823529411765,3696.627450980392,5652.392156862745,7180.431372549019
2026-01-10 21:52:48.760,3464.764705882353,2183.7058823529414,3697.823529411765,5650.764705882353,7173.941176470588
2026-01-10 21:52:48.780,3496.470588235294,2145.5882352941176,3699.0196078431372,5649.137254901961,7167.450980392156
2026-01-10 21:52:48.800,3528.176470588235,2107.470588235294,3700.2156862745096,5647.509803921569,7160.9607843137255
2026-01-10 21:52:48.820,3559.8823529411766,2069.3529411764707,3701.4117647058824,5645.882352941177,7154.470588235294
2026-01-10 21:52:48.840,3591.588235294118,2031.235294117647,3702.607843137255,5644.254901960784,7147.980392156863
2026-01-10 21:52:48.860,3623.2941176470586,1993.1176470588236,3703.8039215686276,5642.6274509803925,7141.490196078432
2026-01-10 21:52:48.880,3655.0,1955.0,3705.0,5641.0,7135.0
2026-01-10 21:52:48.900,3655.714285714286,1990.5535714285713,3704.5714285714284,5642.642857142857,7136.52
2026-01-10 21:52:48.920,3656.4285714285716,2026.107142857143,3704.1428571428573,5644.285714285715,7138.04
2026-01-10 21:52:48.940,3657.1428571428573,2061.660714285714,3703.714285714286,5645.928571428572,7139.56
2026-01-10 21:52:48.960,3657.8571428571427,2097.214285714286,3703.285714285714,5647.571428571428,7141.08
2026-01-10 21:52:48.980,3658.5714285714284,2132.7678571428573,3702.8571428571427,5649.214285714285,7142.6
2026-01-10 21:52:49.000,3659.285714285714,2168.3214285714284,3702.4285714285716,5650.857142857143,7144.12
2026-01-10 21:52:49.020,3660.0,2203.875,3702.0,5652.5,7145.64
2026-01-10 21:52:49.040,3660.714285714286,2239.4285714285716,3701.5714285714284,5654.142857142857,7147.16
2026-01-10 21:52:49.060,3661.4285714285716,2274.982142857143,3701.1428571428573,5655.785714285715,7148.68
2026-01-10 21:52:49.080,3662.1428571428573,2310.535714285714,3700.714285714286,5657.428571428572,7150.2
2026-01-10 21:52:49.100,3662.8571428571427,2346.089285714286,3700.285714285714,5659.071428571428,7151.72
2026-01-10 21:52:49.120,3663.5714285714284,2381.6428571428573,3699.8571428571427,5660.714285714285,7153.24
2026-01-10 21:52:49.140,3664.285714285714,2417.1964285714284,3699.4285714285716,5662.357142857143,7154.76
2026-01-10 21:52:49.160,3665.0,2452.75,3699.0,5664.0,7156.28
2026-01-10 21:52:49.180,3665.714285714286,2488.3035714285716,3698.5714285714284,5665.642857142857,7157.8
2026-01-10 21:52:49.200,3666.4285714285716,2523.857142857143,3698.1428571428573,5667.285714285715,7159.32
2026-01-10 21:52:49.220,3667.1428571428573,2559.410714285714,3697.714285714286,5668.928571428572,7160.84
2026-01-10 21:52:49.240,3667.8571428571427,2594.964285714286,3697.285714285714,5670.571428571428,7162.36
2026-01-10 21:52:49.260,3668.5714285714284,2630.5178571428573,3696.8571428571427,5672.214285714285,7163.88
2026-01-10 21:52:49.280,3669.285714285714,2666.0714285714284,3696.4285714285716,5673.857142857143,7165.4
2026-01-10 21:52:49.300,3670.0,2701.625,3696.0,5675.5,7166.92
2026-01-10 21:52:49.320,3670.714285714286,2737.1785714285716,3695.5714285714284,5677.142857142857,7168.44
2026-01-10 21:52:49.340,3671.4285714285716,2772.732142857143,3695.1428571428573,5678.785714285715,7169.96
2026-01-10 21:52:49.360,3672.1428571428573,2808.285714285714,3694.714285714286,5680.428571428572,7171.48
2026-01-10 21:52:49.380,3672.8571428571427,2843.839285714286,3694.285714285714,5682.071428571428,7173.0
2026-01-10 21:52:49.400,3673.5714285714284,2879.3928571428573,3693.8571428571427,5683.714285714285,7174.52
2026-01-10 21:52:49.420,3674.285714285714,2914.9464285714284,3693.4285714285716,5685.357142857143,7176.04
2026-01-10 21:52:49.440,3675.0,2950.5,3693.0,5687.0,7177.56
2026-01-10 21:52:49.460,3675.714285714286,2986.0535714285716,3692.5714285714284,5688.642857142857,7179.08
2026-01-10 21:52:49.480,3676.4285714285716,3021.607142857143,3692.1428571428573,5690.285714285715,7180.6
2026-01-10 21:52:49.500,3677.1428571428573,3057.1607142857147,3691.714285714286,5691.928571428572,7182.12
2026-01-10 21:52:49.520,3677.8571428571427,3092.714285714286,3691.285714285714,5693.571428571428,7183.64
2026-01-10 21:52:49.540,3678.5714285714284,3128.267857142857,3690.8571428571427,5695.214285714285,7185.16
2026-01-10 21:52:49.560,3679.285714285714,3163.8214285714284,3690.4285714285716,5696.857142857143,7186.68
2026-01-10 21:52:49.580,3680.0,3199.375,3690.0,5698.5,7188.2
2026-01-10 21:52:49.600,3680.714285714286,3234.9285714285716,3689.5714285714284,5700.142857142857,7189.72
2026-01-10 21:52:49.620,3681.4285714285716,3270.482142857143,3689.1428571428573,5701.785714285715,7191.24
2026-01-10 21:52:49.640,3682.1428571428573,3306.0357142857147,3688.714285714286,5703.428571428572,7192.76
2026-01-10 21:52:49.660,3682.8571428571427,3341.589285714286,3688.285714285714,5705.071428571428,7194.28
2026-01-10 21:52:49.680,3683.5714285714284,3377.1428571428573,3687.8571428571427,5706.714285714285,7195.8
2026-01-10 21:52:49.700,3684.285714285714,3412.6964285714284,3687.4285714285716,5708.357142857143,7197.32
2026-01-10 21:52:49.720,3685.0,3448.25,3687.0,5710.0,7198.84
2026-01-10 21:52:49.740,3685.714285714286,3483.8035714285716,3686.5714285714284,5711.642857142857,7200.36
2026-01-10 21:52:49.760,3686.4285714285716,3519.357142857143,3686.1428571428573,5713.285714285715,7201.88
2026-01-10 21:52:49.780,3687.1428571428573,3554.9107142857147,3685.714285714286,5714.928571428572,7203.4
2026-01-10 21:52:49.800,3687.8571428571427,3590.464285714286,3685.285714285714,5716.571428571428,7204.92
2026-01-10 21:52:49.820,3688.5714285714284,3626.0178571428573,3684.8571428571427,5718.214285714285,7206.44
2026-01-10 21:52:49.840,3689.285714285714,3661.5714285714284,3684.4285714285716,5719.857142857143,7207.96
2026-01-10 21:52:49.860,3690.0,3697.125,3684.0,5721.5,7209.48
2026-01-10 21:52:49.880,3690.714285714286,3732.6785714285716,3683.5714285714284,5723.142857142857,7211.0
2026-01-10 21:52:49.900,3691.4285714285716,3768.232142857143,3683.1428571428573,5724.785714285715,7210.137254901961
2026-01-10 21:52:49.920,3692.1428571428573,3803.7857142857147,3682.714285714286,5726.428571428572,7209.274509803921
2026-01-10 21:52:49.940,3692.8571428571427,3839.339285714286,3682.285714285714,5728.071428571428,7208.411764705882
2026-01-10 21:52:49.960,3693.5714285714284,3874.8928571428573,3681.8571428571427,5729.714285714285,7207.549019607844
2026-01-10 21:52:49.980,3694.285714285714,3910.4464285714284,3681.4285714285716,5731.357142857143,7206.686274509804
2026-01-10 21:52:50.000,3695.0,3946.0,3681.0,5733.0,7205.823529411765
2026-01-10 21:52:50.020,3694.711111111111,3945.6222222222223,3680.9777777777776,5733.177777777778,7204.9607843137255
2026-01-10 21:52:50.040,3694.4222222222224,3945.2444444444445,3680.9555555555557,5733.355555555556,7204.098039215686
2026-01-10 21:52:50.060,3694.133333333333,3944.866666666667,3680.9333333333334,5733.533333333334,7203.235294117647
2026-01-10 21:52:50.080,3693.8444444444444,3944.488888888889,3680.911111111111,5733.711111111111,7202.3725490196075
2026-01-10 21:52:50.100,3693.5555555555557,3944.1111111111113,3680.8888888888887,5733.888888888889,7201.509803921569
2026-01-10 21:52:50.120,3693.266666666667,3943.733333333333,3680.866666666667,5734.066666666667,7200.64705882353
2026-01-10 21:52:50.140,3692.9777777777776,3943.3555555555554,3680.8444444444444,5734.2444444444445,7199.78431372549
2026-01-10 21:52:50.160,3692.688888888889,3942.9777777777776,3680.822222222222,5734.422222222222,7198.921568627451
2026-01-10 21:52:50.180,3692.4,3942.6,3680.8,5734.6,7198.058823529412
2026-01-10 21:52:50.200,3692.1111111111113,3942.222222222222,3680.777777777778,5734.777777777777,7197.196078431372
2026-01-10 21:52:50.220,3691.822222222222,3941.8444444444444,3680.7555555555555,5734.955555555555,7196.333333333333
2026-01-10 21:52:50.240,3691.5333333333333,3941.4666666666667,3680.733333333333,5735.133333333333,7195.470588235294
2026-01-10 21:52:50.260,3691.2444444444445,3941.088888888889,3680.711111111111,5735.311111111111,7194.607843137255
2026-01-10 21:52:50.280,3690.9555555555557,3940.711111111111,3680.688888888889,5735.488888888889,7193.745098039216
2026-01-10 21:52:50.300,3690.6666666666665,3940.3333333333335,3680.6666666666665,5735.666666666667,7192.882352941177
2026-01-10 21:52:50.320,3690.3777777777777,3939.9555555555557,3680.6444444444446,5735.844444444445,7192.019607843137
2026-01-10 21:52:50.340,3690.088888888889,3939.5777777777776,3680.6222222222223,5736.022222222222,7191.156862745098
2026-01-10 21:52:50.360,3689.8,3939.2,3680.6,5736.2,7190.294117647059
2026-01-10 21:52:50.380,3689.511111111111,3938.822222222222,3680.5777777777776,5736.377777777778,7189.431372549019
2026-01-10 21:52:50.400,3689.222222222222,3938.4444444444443,3680.5555555555557,5736.555555555556,7188.568627450981
2026-01-10 21:52:50.420,3688.9333333333334,3938.0666666666666,3680.5333333333333,5736.733333333334,7187.705882352941
2026-01-10 21:52:50.440,3688.6444444444446,3937.688888888889,3680.511111111111,5736.9111111111115,7186.843137254902
2026-01-10 21:52:50.460,3688.3555555555554,3937.311111111111,3680.488888888889,5737.0888888888885,7185.980392156863
2026-01-10 21:52:50.480,3688.0666666666666,3936.9333333333334,3680.4666666666667,5737.266666666666,7185.117647058823
2026-01-10 21:52:50.500,3687.777777777778,3936.5555555555557,3680.4444444444443,5737.444444444444,7184.254901960784
2026-01-10 21:52:50.520,3687.488888888889,3936.177777777778,3680.4222222222224,5737.622222222222,7183.392156862745
2026-01-10 21:52:50.540,3687.2,3935.8,3680.4,5737.8,7182.529411764706
2026-01-10 21:52:50.560,3686.911111111111,3935.4222222222224,3680.3777777777777,5737.977777777778,7181.666666666667
2026-01-10 21:52:50.580,3686.6222222222223,3935.0444444444443,3680.3555555555554,5738.155555555555,7180.803921568628
2026-01-10 21:52:50.600,3686.3333333333335,3934.6666666666665,3680.3333333333335,5738.333333333333,7179.941176470588
2026-01-10 21:52:50.620,3686.0444444444443,3934.288888888889,3680.311111111111,5738.511111111111,7179.078431372549
2026-01-10 21:52:50.640,3685.7555555555555,3933.911111111111,3680.288888888889,5738.688888888889,7178.21568627451
2026-01-10 21:52:50.660,3685.4666666666667,3933.5333333333333,3680.266666666667,5738.866666666667,7177.35294117647
2026-01-10 21:52:50.680,3685.177777777778,3933.1555555555556,3680.2444444444445,5739.044444444445,7176.490196078431
2026-01-10 21:52:50.700,3684.8888888888887,3932.777777777778,3680.222222222222,5739.222222222223,7175.6274509803925
2026-01-10 21:52:50.720,3684.6,3932.4,3680.2,5739.4,7174.764705882353
2026-01-10 21:52:50.740,3684.311111111111,3932.0222222222224,3680.177777777778,5739.577777777778,7173.901960784314
2026-01-10 21:52:50.760,3684.0222222222224,3931.6444444444446,3680.1555555555556,5739.7555555555555,7173.0392156862745
2026-01-10 21:52:50.780,3683.733333333333,3931.266666666667,3680.133333333333,5739.933333333333,7172.176470588235
2026-01-10 21:52:50.800,3683.4444444444443,3930.8888888888887,3680.1111111111113,5740.111111111111,7171.313725490196
2026-01-10 21:52:50.820,3683.1555555555556,3930.511111111111,3680.088888888889,5740.288888888889,7170.450980392156
2026-01-10 21:52:50.840,3682.866666666667,3930.133333333333,3680.0666666666666,5740.466666666666,7169.588235294118
2026-01-10 21:52:50.860,3682.5777777777776,3929.7555555555555,3680.0444444444443,5740.644444444444,7168.725490196079
2026-01-10 21:52:50.880,3682.288888888889,3929.3777777777777,3680.0222222222224,5740.822222222222,7167.862745098039
2026-01-10 21:52:50.900,3682.0,3929.0,3680.0,5741.0,7167.0
2026-01-10 21:52:50.920,3682.4117647058824,3928.5882352941176,3679.901960784314,5740.921568627451,7166.411764705882
2026-01-10 21:52:50.940,3682.823529411765,3928.176470588235,3679.8039215686276,5740.843137254902,7165.823529411765
2026-01-10 21:52:50.960,3683.235294117647,3927.764705882353,3679.705882352941,5740.764705882353,7165.235294117647
2026-01-10 21:52:50.980,3683.6470588235293,3927.3529411764707,3679.607843137255,5740.686274509804,7164.64705882353
2026-01-10 21:52:51.000,3684.0588235294117,3926.9411764705883,3679.5098039215686,5740.607843137255,7164.058823529412
2026-01-10 21:52:51.020,3684.470588235294,3926.529411764706,3679.4117647058824,5740.529411764706,7163.470588235294
2026-01-10 21:52:51.040,3684.8823529411766,3926.1176470588234,3679.3137254901962,5740.450980392156,7162.882352941177
2026-01-10 21:52:51.060,3685.294117647059,3925.705882352941,3679.2156862745096,5740.3725490196075,7162.294117647059
2026-01-10 21:52:51.080,3685.705882352941,3925.294117647059,3679.1176470588234,5740.294117647059,7161.705882352941
2026-01-10 21:52:51.100,3686.1176470588234,3924.8823529411766,3679.0196078431372,5740.21568627451,7161.117647058823
2026-01-10 21:52:51.120,3686.529411764706,3924.470588235294,3678.921568627451,5740.137254901961,7160.529411764706
2026-01-10 21:52:51.140,3686.9411764705883,3924.0588235294117,3678.823529411765,5740.058823529412,7159.941176470588
2026-01-10 21:52:51.160,3687.3529411764707,3923.6470588235293,3678.725490196078,5739.980392156863,7159.35294117647
2026-01-10 21:52:51.180,3687.764705882353,3923.235294117647,3678.627450980392,5739.901960784314,7158.764705882353
2026-01-10 21:52:51.200,3688.176470588235,3922.823529411765,3678.529411764706,5739.823529411765,7158.176470588235
2026-01-10 21:52:51.220,3688.5882352941176,3922.4117647058824,3678.4313725490197,5739.745098039216,7157.588235294118
2026-01-10 21:52:51.240,3689.0,3922.0,3678.3333333333335,5739.666666666667,7157.0
2026-01-10 21:52:51.260,3689.4117647058824,3921.5882352941176,3678.235294117647,5739.588235294118,7156.411764705882
2026-01-10 21:52:51.280,3689.823529411765,3921.176470588235,3678.1372549019607,5739.509803921569,7155.823529411765
2026-01-10 21:52:51.300,3690.235294117647,3920.764705882353,3678.0392156862745,5739.431372549019,7155.235294117647
2026-01-10 21:52:51.320,3690.6470588235293,3920.3529411764707,3677.9411764705883,5739.35294117647,7154.64705882353
2026-01-10 21:52:51.340,3691.0588235294117,3919.9411764705883,3677.843137254902,5739.274509803921,7154.058823529412
2026-01-10 21:52:51.360,3691.470588235294,3919.529411764706,3677.7450980392155,5739.196078431372,7153.470588235294
2026-01-10 21:52:51.380,3691.8823529411766,3919.1176470588234,3677.6470588235293,5739.117647058823,7152.882352941177
2026-01-10 21:52:51.400,3692.294117647059,3918.705882352941,3677.549019607843,5739.0392156862745,7152.294117647059
2026-01-10 21:52:51.420,3692.705882352941,3918.294117647059,3677.450980392157,5738.9607843137255,7151.705882352941
2026-01-10 21:52:51.440,3693.1176470588234,3917.8823529411766,3677.3529411764707,5738.882352941177,7151.117647058823
2026-01-10 21:52:51.460,3693.529411764706,3917.470588235294,3677.2549019607845,5738.803921568628,7150.529411764706
2026-01-10 21:52:51.480,3693.9411764705883,3917.0588235294117,3677.156862745098,5738.725490196079,7149.941176470588
2026-01-10 21:52:51.500,3694.3529411764707,3916.6470588235293,3677.0588235294117,5738.64705882353,7149.35294117647
2026-01-10 21:52:51.520,3694.764705882353,3916.235294117647,3676.9607843137255,5738.568627450981,7148.764705882353
2026-01-10 21:52:51.540,3695.176470588235,3915.823529411765,3676.8627450980393,5738.490196078431,7148.176470588235
2026-01-10 21:52:51.560,3695.5882352941176,3915.4117647058824,3676.764705882353,5738.411764705882,7147.588235294118
2026-01-10 21:52:51.580,3696.0,3915.0,3676.6666666666665,5738.333333333333,7147.0
2026-01-10 21:52:51.600,3696.4117647058824,3914.5882352941176,3676.5686274509803,5738.254901960784,7146.411764705882
2026-01-10 21:52:51.620,3696.823529411765,3914.176470588235,3676.470588235294,5738.176470588235,7145.823529411765
2026-01-10 21:52:51.640,3697.235294117647,3913.764705882353,3676.372549019608,5738.098039215686,7145.235294117647
2026-01-10 21:52:51.660,3697.6470588235293,3913.3529411764707,3676.274509803922,5738.019607843137,7144.64705882353
2026-01-10 21:52:51.680,3698.0588235294117,3912.9411764705883,3676.176470588235,5737.941176470588,7144.058823529412
2026-01-10 21:52:51.700,3698.470588235294,3912.529411764706,3676.078431372549,5737.862745098039,7143.470588235294
2026-01-10 21:52:51.720,3698.8823529411766,3912.1176470588234,3675.9803921568628,5737.78431372549,7142.882352941177
2026-01-10 21:52:51.740,3699.294117647059,3911.705882352941,3675.8823529411766,5737.705882352941,7142.294117647059
2026-01-10 21:52:51.760,3699.705882352941,3911.294117647059,3675.7843137254904,5737.6274509803925,7141.705882352941
2026-01-10 21:52:51.780,3700.1176470588234,3910.8823529411766,3675.6862745098038,5737.549019607844,7141.117647058823
2026-01-10 21:52:51.800,3700.529411764706,3910.470588235294,3675.5882352941176,5737.470588235294,7140.529411764706
2026-01-10 21:52:51.820,3700.9411764705883,3910.0588235294117,3675.4901960784314,5737.392156862745,7139.941176470588
2026-01-10 21:52:51.840,3701.3529411764707,3909.6470588235293,3675.392156862745,5737.313725490196,7139.35294117647
2026-01-10 21:52:51.860,3701.764705882353,3909.235294117647,3675.294117647059,5737.235294117647,7138.764705882353
2026-01-10 21:52:51.880,3702.176470588235,3908.823529411765,3675.1960784313724,5737.156862745098,7138.176470588235
2026-01-10 21:52:51.900,3702.5882352941176,3908.4117647058824,3675.098039215686,5737.078431372549,7137.588235294118
2026-01-10 21:52:51.920,3703.0,3908.0,3675.0,5737.0,7137.0
2026-01-10 21:52:51.940,3703.02,3908.5,3674.96,5737.02,7136.72
2026-01-10 21:52:51.960,3703.04,3909.0,3674.92,5737.04,7136.44
2026-01-10 21:52:51.980,3703.06,3909.5,3674.88,5737.06,7136.16
2026-01-10 21:52:52.000,3703.08,3910.0,3674.84,5737.08,7135.88
2026-01-10 21:52:52.020,3703.1,3910.5,3674.8,5737.1,7135.6
2026-01-10 21:52:52.040,3703.12,3911.0,3674.76,5737.12,7135.32
2026-01-10 21:52:52.060,3703.14,3911.5,3674.72,5737.14,7135.04
2026-01-10 21:52:52.080,3703.16,3912.0,3674.68,5737.16,7134.76
2026-01-10 21:52:52.100,3703.18,3912.5,3674.64,5737.18,7134.48
2026-01-10 21:52:52.120,3703.2,3913.0,3674.6,5737.2,7134.2
2026-01-10 21:52:52.140,3703.22,3913.5,3674.56,5737.22,7133.92
2026-01-10 21:52:52.160,3703.24,3914.0,3674.52,5737.24,7133.64
2026-01-10 21:52:52.180,3703.26,3914.5,3674.48,5737.26,7133.36
2026-01-10 21:52:52.200,3703.28,3915.0,3674.44,5737.28,7133.08
2026-01-10 21:52:52.220,3703.3,3915.5,3674.4,5737.3,7132.8
2026-01-10 21:52:52.240,3703.32,3916.0,3674.36,5737.32,7132.52
2026-01-10 21:52:52.260,3703.34,3916.5,3674.32,5737.34,7132.24
2026-01-10 21:52:52.280,3703.36,3917.0,3674.28,5737.36,7131.96
2026-01-10 21:52:52.300,3703.38,3917.5,3674.24,5737.38,7131.68
2026-01-10 21:52:52.320,3703.4,3918.0,3674.2,5737.4,7131.4
2026-01-10 21:52:52.340,3703.42,3918.5,3674.16,5737.42,7131.12
2026-01-10 21:52:52.360,3703.44,3919.0,3674.12,5737.44,7130.84
2026-01-10 21:52:52.380,3703.46,3919.5,3674.08,5737.46,7130.56
2026-01-10 21:52:52.400,3703.48,3920.0,3674.04,5737.48,7130.28
2026-01-10 21:52:52.420,3703.5,3920.5,3674.0,5737.5,7130.0
2026-01-10 21:52:52.440,3703.52,3921.0,3673.96,5737.52,7129.72
2026-01-10 21:52:52.460,3703.54,3921.5,3673.92,5737.54,7129.44
2026-01-10 21:52:52.480,3703.56,3922.0,3673.88,5737.56,7129.16
2026-01-10 21:52:52.500,3703.58,3922.5,3673.84,5737.58,7128.88
2026-01-10 21:52:52.520,3703.6,3923.0,3673.8,5737.6,7128.6
2026-01-10 21:52:52.540,3703.62,3923.5,3673.76,5737.62,7128.32
2026-01-10 21:52:52.560,3703.64,3924.0,3673.72,5737.64,7128.04
2026-01-10 21:52:52.580,3703.66,3924.5,3673.68,5737.66,7127.76
2026-01-10 21:52:52.600,3703.68,3925.0,3673.64,5737.68,7127.48
2026-01-10 21:52:52.620,3703.7,3925.5,3673.6,5737.7,7127.2
2026-01-10 21:52:52.640,3703.72,3926.0,3673.56,5737.72,7126.92
2026-01-10 21:52:52.660,3703.74,3926.5,3673.52,5737.74,7126.64
2026-01-10 21:52:52.680,3703.76,3927.0,3673.48,5737.76,7126.36
2026-01-10 21:52:52.700,3703.78,3927.5,3673.44,5737.78,7126.08
2026-01-10 21:52:52.720,3703.8,3928.0,3673.4,5737.8,7125.8
2026-01-10 21:52:52.740,3703.82,3928.5,3673.36,5737.82,7125.52
2026-01-10 21:52:52.760,3703.84,3929.0,3673.32,5737.84,7125.24
2026-01-10 21:52:52.780,3703.86,3929.5,3673.28,5737.86,7124.96
2026-01-10 21:52:52.800,3703.88,3930.0,3673.24,5737.88,7124.68
2026-01-10 21:52:52.820,3703.9,3930.5,3673.2,5737.9,7124.4
2026-01-10 21:52:52.840,3703.92,3931.0,3673.16,5737.92,7124.12
2026-01-10 21:52:52.860,3703.94,3931.5,3673.12,5737.94,7123.84
2026-01-10 21:52:52.880,3703.96,3932.0,3673.08,5737.96,7123.56
2026-01-10 21:52:52.900,3703.98,3932.5,3673.04,5737.98,7123.28
2026-01-10 21:52:52.920,3704.0,3933.0,3673.0,5738.0,7123.0
2026-01-10 21:52:52.940,3703.843137254902,3932.823529411765,3673.176470588235,5738.058823529412,7122.882352941177
2026-01-10 21:52:52.960,3703.6862745098038,3932.6470588235293,3673.3529411764707,5738.117647058823,7122.764705882353
2026-01-10 21:52:52.980,3703.529411764706,3932.470588235294,3673.529411764706,5738.176470588235,7122.64705882353
2026-01-10 21:52:53.000,3703.372549019608,3932.294117647059,3673.705882352941,5738.235294117647,7122.529411764706
2026-01-10 21:52:53.020,3703.2156862745096,3932.1176470588234,3673.8823529411766,5738.294117647059,7122.411764705882
2026-01-10 21:52:53.040,3703.0588235294117,3931.9411764705883,3674.0588235294117,5738.35294117647,7122.294117647059
2026-01-10 21:52:53.060,3702.901960784314,3931.764705882353,3674.235294117647,5738.411764705882,7122.176470588235
2026-01-10 21:52:53.080,3702.7450980392155,3931.5882352941176,3674.4117647058824,5738.470588235294,7122.058823529412
2026-01-10 21:52:53.100,3702.5882352941176,3931.4117647058824,3674.5882352941176,5738.529411764706,7121.941176470588
2026-01-10 21:52:53.120,3702.4313725490197,3931.235294117647,3674.764705882353,5738.588235294118,7121.823529411765
2026-01-10 21:52:53.140,3702.274509803922,3931.0588235294117,3674.9411764705883,5738.64705882353,7121.705882352941
2026-01-10 21:52:53.160,3702.1176470588234,3930.8823529411766,3675.1176470588234,5738.705882352941,7121.588235294118
2026-01-10 21:52:53.180,3701.9607843137255,3930.705882352941,3675.294117647059,5738.764705882353,7121.470588235294
2026-01-10 21:52:53.200,3701.8039215686276,3930.529411764706,3675.470588235294,5738.823529411765,7121.35294117647
2026-01-10 21:52:53.220,3701.6470588235293,3930.3529411764707,3675.6470588235293,5738.882352941177,7121.235294117647
2026-01-10 21:52:53.240,3701.4901960784314,3930.176470588235,3675.823529411765,5738.941176470588,7121.117647058823
2026-01-10 21:52:53.260,3701.3333333333335,3930.0,3676.0,5739.0,7121.0
2026-01-10 21:52:53.280,3701.176470588235,3929.823529411765,3676.176470588235,5739.058823529412,7120.882352941177
2026-01-10 21:52:53.300,3701.0196078431372,3929.6470588235293,3676.3529411764707,5739.117647058823,7120.764705882353
2026-01-10 21:52:53.320,3700.8627450980393,3929.470588235294,3676.529411764706,5739.176470588235,7120.64705882353
2026-01-10 21:52:53.340,3700.705882352941,3929.294117647059,3676.705882352941,5739.235294117647,7120.529411764706
2026-01-10 21:52:53.360,3700.549019607843,3929.1176470588234,3676.8823529411766,5739.294117647059,7120.411764705882
2026-01-10 21:52:53.380,3700.392156862745,3928.9411764705883,3677.0588235294117,5739.35294117647,7120.294117647059
2026-01-10 21:52:53.400,3700.235294117647,3928.764705882353,3677.235294117647,5739.411764705882,7120.176470588235
2026-01-10 21:52:53.420,3700.078431372549,3928.5882352941176,3677.4117647058824,5739.470588235294,7120.058823529412
2026-01-10 21:52:53.440,3699.921568627451,3928.4117647058824,3677.5882352941176,5739.529411764706,7119.941176470588
2026-01-10 21:52:53.460,3699.764705882353,3928.235294117647,3677.764705882353,5739.588235294118,7119.823529411765
2026-01-10 21:52:53.480,3699.607843137255,3928.0588235294117,3677.9411764705883,5739.64705882353,7119.705882352941
2026-01-10 21:52:53.500,3699.450980392157,3927.8823529411766,3678.1176470588234,5739.705882352941,7119.588235294118
2026-01-10 21:52:53.520,3699.294117647059,3927.705882352941,3678.294117647059,5739.764705882353,7119.470588235294
2026-01-10 21:52:53.540,3699.1372549019607,3927.529411764706,3678.470588235294,5739.823529411765,7119.35294117647
2026-01-10 21:52:53.560,3698.9803921568628,3927.3529411764707,3678.6470588235293,5739.882352941177,7119.235294117647
2026-01-10 21:52:53.580,3698.823529411765,3927.176470588235,3678.823529411765,5739.941176470588,7119.117647058823
2026-01-10 21:52:53.600,3698.6666666666665,3927.0,3679.0,5740.0,7119.0
2026-01-10 21:52:53.620,3698.5098039215686,3926.823529411765,3679.176470588235,5740.058823529412,7118.882352941177
2026-01-10 21:52:53.640,3698.3529411764707,3926.6470588235293,3679.3529411764707,5740.117647058823,7118.764705882353
2026-01-10 21:52:53.660,3698.1960784313724,3926.470588235294,3679.529411764706,5740.176470588235,7118.64705882353
2026-01-10 21:52:53.680,3698.0392156862745,3926.294117647059,3679.705882352941,5740.235294117647,7118.529411764706
2026-01-10 21:52:53.700,3697.8823529411766,3926.1176470588234,3679.8823529411766,5740.294117647059,7118.411764705882
2026-01-10 21:52:53.720,3697.725490196078,3925.9411764705883,3680.0588235294117,5740.35294117647,7118.294117647059
2026-01-10 21:52:53.740,3697.5686274509803,3925.764705882353,3680.235294117647,5740.411764705882,7118.176470588235
2026-01-10 21:52:53.760,3697.4117647058824,3925.5882352941176,3680.4117647058824,5740.470588235294,7118.058823529412
2026-01-10 21:52:53.780,3697.2549019607845,3925.4117647058824,3680.5882352941176,5740.529411764706,7117.941176470588
2026-01-10 21:52:53.800,3697.098039215686,3925.235294117647,3680.764705882353,5740.588235294118,7117.823529411765
2026-01-10 21:52:53.820,3696.9411764705883,3925.0588235294117,3680.9411764705883,5740.64705882353,7117.705882352941
2026-01-10 21:52:53.840,3696.7843137254904,3924.8823529411766,3681.1176470588234,5740.705882352941,7117.588235294118
2026-01-10 21:52:53.860,3696.627450980392,3924.705882352941,3681.294117647059,5740.764705882353,7117.470588235294
2026-01-10 21:52:53.880,3696.470588235294,3924.529411764706,3681.470588235294,5740.823529411765,7117.35294117647
2026-01-10 21:52:53.900,3696.3137254901962,3924.3529411764707,3681.6470588235293,5740.882352941177,7117.235294117647
2026-01-10 21:52:53.920,3696.156862745098,3924.176470588235,3681.823529411765,5740.941176470588,7117.117647058823
2026-01-10 21:52:53.940,3696.0,3924.0,3682.0,5741.0,7117.0
2026-01-10 21:52:53.960,3696.0,3924.0,3682.0,5741.117647058823,7116.901960784314
2026-01-10 21:52:53.980,3696.0,3924.0,3682.0,5741.235294117647,7116.803921568628
2026-01-10 21:52:54.000,3696.0,3924.0,3682.0,5741.35294117647,7116.705882352941
2026-01-10 21:52:54.020,3696.0,3924.0,3682.0,5741.470588235294,7116.607843137255
2026-01-10 21:52:54.040,3696.0,3924.0,3682.0,5741.588235294118,7116.509803921569
2026-01-10 21:52:54.060,3696.0,3924.0,3682.0,5741.705882352941,7116.411764705882
2026-01-10 21:52:54.080,3696.0,3924.0,3682.0,5741.823529411765,7116.313725490196
2026-01-10 21:52:54.100,3696.0,3924.0,3682.0,5741.941176470588,7116.21568627451
2026-01-10 21:52:54.120,3696.0,3924.0,3682.0,5742.058823529412,7116.117647058823
2026-01-10 21:52:54.140,3696.0,3924.0,3682.0,5742.176470588235,7116.019607843137
2026-01-10 21:52:54.160,3696.0,3924.0,3682.0,5742.294117647059,7115.921568627451
2026-01-10 21:52:54.180,3696.0,3924.0,3682.0,5742.411764705882,7115.823529411765
2026-01-10 21:52:54.200,3696.0,3924.0,3682.0,5742.529411764706,7115.725490196079
2026-01-10 21:52:54.220,3696.0,3924.0,3682.0,5742.64705882353,7115.6274509803925
2026-01-10 21:52:54.240,3696.0,3924.0,3682.0,5742.764705882353,7115.529411764706
2026-01-10 21:52:54.260,3696.0,3924.0,3682.0,5742.882352941177,7115.431372549019
2026-01-10 21:52:54.280,3696.0,3924.0,3682.0,5743.0,7115.333333333333
2026-01-10 21:52:54.300,3696.0,3924.0,3682.0,5743.117647058823,7115.235294117647
2026-01-10 21:52:54.320,3696.0,3924.0,3682.0,5743.235294117647,7115.137254901961
2026-01-10 21:52:54.340,3696.0,3924.0,3682.0,5743.35294117647,7115.0392156862745
2026-01-10 21:52:54.360,3696.0,3924.0,3682.0,5743.470588235294,7114.941176470588
2026-01-10 21:52:54.380,3696.0,3924.0,3682.0,5743.588235294118,7114.843137254902
2026-01-10 21:52:54.400,3696.0,3924.0,3682.0,5743.705882352941,7114.745098039216
2026-01-10 21:52:54.420,3696.0,3924.0,3682.0,5743.823529411765,7114.64705882353
2026-01-10 21:52:54.440,3696.0,3924.0,3682.0,5743.941176470588,7114.549019607844
2026-01-10 21:52:54.460,3696.0,3924.0,3682.0,5744.058823529412,7114.450980392156
2026-01-10 21:52:54.480,3696.0,3924.0,3682.0,5744.176470588235,7114.35294117647
2026-01-10 21:52:54.500,3696.0,3924.0,3682.0,5744.294117647059,7114.254901960784
2026-01-10 21:52:54.520,3696.0,3924.0,3682.0,5744.411764705882,7114.156862745098
2026-01-10 21:52:54.540,3696.0,3924.0,3682.0,5744.529411764706,7114.058823529412
2026-01-10 21:52:54.560,3696.0,3924.0,3682.0,5744.64705882353,7113.9607843137255
2026-01-10 21:52:54.580,3696.0,3924.0,3682.0,5744.764705882353,7113.862745098039
2026-01-10 21:52:54.600,3696.0,3924.0,3682.0,5744.882352941177,7113.764705882353
2026-01-10 21:52:54.620,3696.0,3924.0,3682.0,5745.0,7113.666666666667
2026-01-10 21:52:54.640,3696.0,3924.0,3682.0,5745.117647058823,7113.568627450981
2026-01-10 21:52:54.660,3696.0,3924.0,3682.0,5745.235294117647,7113.470588235294
2026-01-10 21:52:54.680,3696.0,3924.0,3682.0,5745.35294117647,7113.3725490196075
2026-01-10 21:52:54.700,3696.0,3924.0,3682.0,5745.470588235294,7113.274509803921
2026-01-10 21:52:54.720,3696.0,3924.0,3682.0,5745.588235294118,7113.176470588235
2026-01-10 21:52:54.740,3696.0,3924.0,3682.0,5745.705882352941,7113.078431372549
2026-01-10 21:52:54.760,3696.0,3924.0,3682.0,5745.823529411765,7112.980392156863
2026-01-10 21:52:54.780,3696.0,3924.0,3682.0,5745.941176470588,7112.882352941177
2026-01-10 21:52:54.800,3696.0,3924.0,3682.0,5746.058823529412,7112.78431372549
2026-01-10 21:52:54.820,3696.0,3924.0,3682.0,5746.176470588235,7112.686274509804
2026-01-10 21:52:54.840,3696.0,3924.0,3682.0,5746.294117647059,7112.588235294118
2026-01-10 21:52:54.860,3696.0,3924.0,3682.0,5746.411764705882,7112.490196078431
2026-01-10 21:52:54.880,3696.0,3924.0,3682.0,5746.529411764706,7112.392156862745
2026-01-10 21:52:54.900,3696.0,3924.0,3682.0,5746.64705882353,7112.294117647059
2026-01-10 21:52:54.920,3696.0,3924.0,3682.0,5746.764705882353,7112.196078431372
2026-01-10 21:52:54.940,3696.0,3924.0,3682.0,5746.882352941177,7112.098039215686
2026-01-10 21:52:54.960,3696.0,3924.0,3682.0,5747.0,7112.0
2026-01-10 21:52:54.980,3696.0,3924.0,3682.0,5747.044444444445,7111.954545454545
2026-01-10 21:52:55.000,3696.0,3924.0,3682.0,5747.0888888888885,7111.909090909091
2026-01-10 21:52:55.020,3696.0,3924.0,3682.0,5747.133333333333,7111.863636363636
2026-01-10 21:52:55.040,3696.0,3924.0,3682.0,5747.177777777778,7111.818181818182
2026-01-10 21:52:55.060,3696.0,3924.0,3682.0,5747.222222222223,7111.772727272727
2026-01-10 21:52:55.080,3696.0,3924.0,3682.0,5747.266666666666,7111.727272727273
2026-01-10 21:52:55.100,3696.0,3924.0,3682.0,5747.311111111111,7111.681818181818
2026-01-10 21:52:55.120,3696.0,3924.0,3682.0,5747.355555555556,7111.636363636364
2026-01-10 21:52:55.140,3696.0,3924.0,3682.0,5747.4,7111.590909090909
2026-01-10 21:52:55.160,3696.0,3924.0,3682.0,5747.444444444444,7111.545454545455
2026-01-10 21:52:55.180,3696.0,3924.0,3682.0,5747.488888888889,7111.5
2026-01-10 21:52:55.200,3696.0,3924.0,3682.0,5747.533333333334,7111.454545454545
2026-01-10 21:52:55.220,3696.0,3924.0,3682.0,5747.577777777778,7111.409090909091
2026-01-10 21:52:55.240,3696.0,3924.0,3682.0,5747.622222222222,7111.363636363636
2026-01-10 21:52:55.260,3696.0,3924.0,3682.0,5747.666666666667,7111.318181818182
2026-01-10 21:52:55.280,3696.0,3924.0,3682.0,5747.711111111111,7111.272727272727
2026-01-10 21:52:55.300,3696.0,3924.0,3682.0,5747.7555555555555,7111.227272727273
2026-01-10 21:52:55.320,3696.0,3924.0,3682.0,5747.8,7111.181818181818
2026-01-10 21:52:55.340,3696.0,3924.0,3682.0,5747.844444444445,7111.136363636364
2026-01-10 21:52:55.360,3696.0,3924.0,3682.0,5747.888888888889,7111.090909090909
2026-01-10 21:52:55.380,3696.0,3924.0,3682.0,5747.933333333333,7111.045454545455
2026-01-10 21:52:55.400,3696.0,3924.0,3682.0,5747.977777777778,7111.0
2026-01-10 21:52:55.420,3696.0,3924.0,3682.0,5748.022222222222,7110.954545454545
2026-01-10 21:52:55.440,3696.0,3924.0,3682.0,5748.066666666667,7110.909090909091
2026-01-10 21:52:55.460,3696.0,3924.0,3682.0,5748.111111111111,7110.863636363636
2026-01-10 21:52:55.480,3696.0,3924.0,3682.0,5748.155555555555,7110.818181818182
2026-01-10 21:52:55.500,3696.0,3924.0,3682.0,5748.2,7110.772727272727
2026-01-10 21:52:55.520,3696.0,3924.0,3682.0,5748.2444444444445,7110.727272727273
2026-01-10 21:52:55.540,3696.0,3924.0,3682.0,5748.288888888889,7110.681818181818
2026-01-10 21:52:55.560,3696.0,3924.0,3682.0,5748.333333333333,7110.636363636364
2026-01-10 21:52:55.580,3696.0,3924.0,3682.0,5748.377777777778,7110.590909090909
2026-01-10 21:52:55.600,3696.0,3924.0,3682.0,5748.422222222222,7110.545454545455
2026-01-10 21:52:55.620,3696.0,3924.0,3682.0,5748.466666666666,7110.5
2026-01-10 21:52:55.640,3696.0,3924.0,3682.0,5748.511111111111,7110.454545454545
2026-01-10 21:52:55.660,3696.0,3924.0,3682.0,5748.555555555556,7110.409090909091
2026-01-10 21:52:55.680,3696.0,3924.0,3682.0,5748.6,7110.363636363636
2026-01-10 21:52:55.700,3696.0,3924.0,3682.0,5748.644444444444,7110.318181818182
2026-01-10 21:52:55.720,3696.0,3924.0,3682.0,5748.688888888889,7110.272727272727
2026-01-10 21:52:55.740,3696.0,3924.0,3682.0,5748.733333333334,7110.227272727273
2026-01-10 21:52:55.760,3696.0,3924.0,3682.0,5748.777777777777,7110.181818181818
2026-01-10 21:52:55.780,3696.0,3924.0,3682.0,5748.822222222222,7110.136363636364
2026-01-10 21:52:55.800,3696.0,3924.0,3682.0,5748.866666666667,7110.090909090909
2026-01-10 21:52:55.820,3696.0,3924.0,3682.0,5748.9111111111115,7110.045454545455
2026-01-10 21:52:55.840,3696.0,3924.0,3682.0,5748.955555555555,7110.0
2026-01-10 21:52:55.860,3696.0,3924.0,3682.0,5749.0,7110.117647058823
2026-01-10 21:52:55.880,3696.0,3924.0,3682.0,5749.163636363636,7110.235294117647
2026-01-10 21:52:55.900,3696.0,3924.0,3682.0,5749.327272727272,7110.35294117647
2026-01-10 21:52:55.920,3696.0,3924.0,3682.0,5749.490909090909,7110.470588235294
2026-01-10 21:52:55.940,3696.0,3924.0,3682.0,5749.654545454546,7110.588235294118
2026-01-10 21:52:55.960,3696.0,3924.0,3682.0,5749.818181818182,7110.705882352941
2026-01-10 21:52:55.980,3696.0,3924.0,3682.0,5749.981818181818,7110.823529411765
2026-01-10 21:52:56.000,3696.0,3924.0,3682.0,5750.145454545454,7110.941176470588
2026-01-10 21:52:56.020,3696.0,3924.0,3682.0,5750.309090909091,7111.058823529412
2026-01-10 21:52:56.040,3696.0,3924.0,3682.0,5750.472727272727,7111.176470588235
2026-01-10 21:52:56.060,3696.0,3924.0,3682.0,5750.636363636364,7111.294117647059
2026-01-10 21:52:56.080,3696.0,3924.0,3682.0,5750.8,7111.411764705882
2026-01-10 21:52:56.100,3696.0,3924.0,3682.0,5750.963636363636,7111.529411764706
2026-01-10 21:52:56.120,3696.0,3924.0,3682.0,5751.127272727273,7111.64705882353
2026-01-10 21:52:56.140,3696.0,3924.0,3682.0,5751.290909090909,7111.764705882353
2026-01-10 21:52:56.160,3696.0,3924.0,3682.0,5751.454545454545,7111.882352941177
2026-01-10 21:52:56.180,3696.0,3924.0,3682.0,5751.618181818182,7112.0
2026-01-10 21:52:56.200,3696.0,3924.0,3682.0,5751.781818181818,7112.117647058823
2026-01-10 21:52:56.220,3696.0,3924.0,3682.0,5751.945454545455,7112.235294117647
2026-01-10 21:52:56.240,3696.0,3924.0,3682.0,5752.109090909091,7112.35294117647
2026-01-10 21:52:56.260,3696.0,3924.0,3682.0,5752.272727272727,7112.470588235294
2026-01-10 21:52:56.280,3696.0,3924.0,3682.0,5752.436363636363,7112.588235294118
2026-01-10 21:52:56.300,3696.0,3924.0,3682.0,5752.6,7112.705882352941
2026-01-10 21:52:56.320,3696.0,3924.0,3682.0,5752.763636363637,7112.823529411765
2026-01-10 21:52:56.340,3696.0,3924.0,3682.0,5752.927272727273,7112.941176470588
2026-01-10 21:52:56.360,3696.0,3924.0,3682.0,5753.090909090909,7113.058823529412
2026-01-10 21:52:56.380,3696.0,3924.0,3682.0,5753.254545454545,7113.176470588235
2026-01-10 21:52:56.400,3696.0,3924.0,3682.0,5753.418181818181,7113.294117647059
2026-01-10 21:52:56.420,3696.0,3924.0,3682.0,5753.581818181819,7113.411764705882
2026-01-10 21:52:56.440,3696.0,3924.0,3682.0,5753.745454545455,7113.529411764706
