timestamp,accX,accY,accZ,ppg,spO2
2026-01-10 21:57:09.920,1999.0,3932.0,3642.0,5776.0,7430.0
2026-01-10 21:57:09.940,1958.8979591836735,3930.6938775510203,3640.877551020408,5776.959183673469,7433.7959183673465
2026-01-10 21:57:09.960,1918.795918367347,3929.387755102041,3639.7551020408164,5777.918367346939,7437.591836734694
2026-01-10 21:57:09.980,1878.6938775510205,3928.081632653061,3638.6326530612246,5778.877551020408,7441.3877551020405
2026-01-10 21:57:10.000,1838.591836734694,3926.7755102040815,3637.5102040816328,5779.836734693878,7445.183673469388
2026-01-10 21:57:10.020,1798.4897959183672,3925.469387755102,3636.387755102041,5780.7959183673465,7448.9795918367345
2026-01-10 21:57:10.040,1758.387755102041,3924.1632653061224,3635.265306122449,5781.755102040816,7452.775510204082
2026-01-10 21:57:10.060,1718.2857142857142,3922.8571428571427,3634.1428571428573,5782.714285714285,7456.571428571428
2026-01-10 21:57:10.080,1678.1836734693877,3921.5510204081634,3633.0204081632655,5783.673469387755,7460.367346938776
2026-01-10 21:57:10.100,1638.0816326530612,3920.2448979591836,3631.8979591836733,5784.632653061224,7464.163265306122
2026-01-10 21:57:10.120,1597.9795918367347,3918.938775510204,3630.7755102040815,5785.591836734694,7467.959183673469
2026-01-10 21:57:10.140,1557.8775510204082,3917.6326530612246,3629.6530612244896,5786.551020408163,7471.755102040816
2026-01-10 21:57:10.160,1517.7755102040817,3916.326530612245,3628.530612244898,5787.510204081633,7475.551020408163
2026-01-10 21:57:10.180,1477.6734693877552,3915.0204081632655,3627.408163265306,5788.469387755102,7479.34693877551
2026-01-10 21:57:10.200,1437.5714285714284,3913.714285714286,3626.285714285714,5789.428571428572,7483.142857142857
2026-01-10 21:57:10.220,1397.4693877551022,3912.408163265306,3625.1632653061224,5790.3877551020405,7486.938775510204
2026-01-10 21:57:10.240,1357.3673469387754,3911.1020408163267,3624.0408163265306,5791.34693877551,7490.734693877551
2026-01-10 21:57:10.260,1317.2653061224491,3909.795918367347,3622.918367346939,5792.306122448979,7494.530612244898
2026-01-10 21:57:10.280,1277.1632653061224,3908.4897959183672,3621.795918367347,5793.265306122449,7498.326530612245
2026-01-10 21:57:10.300,1237.061224489796,3907.183673469388,3620.673469387755,5794.224489795918,7502.122448979592
2026-01-10 21:57:10.320,1196.9591836734694,3905.877551020408,3619.5510204081634,5795.183673469388,7505.918367346939
2026-01-10 21:57:10.340,1156.857142857143,3904.5714285714284,3618.4285714285716,5796.142857142857,7509.714285714285
2026-01-10 21:57:10.360,1116.7551020408164,3903.265306122449,3617.3061224489797,5797.102040816327,7513.510204081633
2026-01-10 21:57:10.380,1076.6530612244899,3901.9591836734694,3616.183673469388,5798.061224489796,7517.306122448979
2026-01-10 21:57:10.400,1036.5510204081634,3900.6530612244896,3615.061224489796,5799.0204081632655,7521.102040816327
2026-01-10 21:57:10.420,996.4489795918367,3899.3469387755104,3613.938775510204,5799.9795918367345,7524.897959183673
2026-01-10 21:57:10.440,956.3469387755104,3898.0408163265306,3612.816326530612,5800.938775510204,7528.693877551021
2026-01-10 21:57:10.460,916.2448979591836,3896.734693877551,3611.6938775510203,5801.897959183673,7532.489795918367
2026-01-10 21:57:10.480,876.1428571428571,3895.4285714285716,3610.5714285714284,5802.857142857143,7536.285714285715
2026-01-10 21:57:10.500,836.0408163265306,3894.122448979592,3609.4489795918366,5803.816326530612,7540.081632653061
2026-01-10 21:57:10.520,795.9387755102041,3892.816326530612,3608.326530612245,5804.775510204082,7543.877551020408
2026-01-10 21:57:10.540,755.8367346938776,3891.5102040816328,3607.204081632653,5805.734693877551,7547.673469387755
2026-01-10 21:57:10.560,715.7346938775511,3890.204081632653,3606.081632653061,5806.693877551021,7551.469387755102
2026-01-10 21:57:10.580,675.6326530612246,3888.8979591836733,3604.9591836734694,5807.65306122449,7555.265306122449
2026-01-10 21:57:10.600,635.5306122448981,3887.591836734694,3603.8367346938776,5808.6122448979595,7559.061224489796
2026-01-10 21:57:10.620,595.4285714285716,3886.285714285714,3602.714285714286,5809.571428571428,7562.857142857143
2026-01-10 21:57:10.640,555.326530612245,3884.9795918367345,3601.591836734694,5810.530612244898,7566.65306122449
2026-01-10 21:57:10.660,515.2244897959185,3883.673469387755,3600.469387755102,5811.489795918367,7570.448979591837
2026-01-10 21:57:10.680,475.1224489795918,3882.3673469387754,3599.3469387755104,5812.448979591837,7574.244897959184
2026-01-10 21:57:10.700,435.0204081632653,3881.061224489796,3598.2244897959185,5813.408163265306,7578.040816326531
2026-01-10 21:57:10.720,394.9183673469388,3879.7551020408164,3597.1020408163267,5814.367346938776,7581.836734693878
2026-01-10 21:57:10.740,354.8163265306123,3878.4489795918366,3595.9795918367345,5815.326530612245,7585.632653061224
2026-01-10 21:57:10.760,314.7142857142858,3877.1428571428573,3594.8571428571427,5816.285714285715,7589.428571428572
2026-01-10 21:57:10.780,274.6122448979593,3875.8367346938776,3593.734693877551,5817.244897959184,7593.224489795918
2026-01-10 21:57:10.800,234.51020408163276,3874.530612244898,3592.612244897959,5818.2040816326535,7597.0204081632655
2026-01-10 21:57:10.820,194.40816326530626,3873.2244897959185,3591.4897959183672,5819.163265306122,7600.816326530612
2026-01-10 21:57:10.840,154.30612244897975,3871.918367346939,3590.3673469387754,5820.122448979592,7604.6122448979595
2026-01-10 21:57:10.860,114.20408163265324,3870.612244897959,3589.2448979591836,5821.081632653061,7608.408163265306
2026-01-10 21:57:10.880,74.10204081632673,3869.3061224489797,3588.122448979592,5822.040816326531,7612.2040816326535
2026-01-10 21:57:10.900,34.0,3868.0,3587.0,5823.0,7616.0
2026-01-10 21:57:10.920,33.40816326530612,3790.265306122449,3547.7551020408164,5820.0204081632655,7610.34693877551
2026-01-10 21:57:10.940,32.816326530612244,3712.530612244898,3508.5102040816328,5817.040816326531,7604.693877551021
2026-01-10 21:57:10.960,32.224489795918366,3634.795918367347,3469.265306122449,5814.061224489796,7599.040816326531
2026-01-10 21:57:10.980,31.632653061224488,3557.0612244897957,3430.0204081632655,5811.081632653061,7593.3877551020405
2026-01-10 21:57:11.000,31.040816326530614,3479.326530612245,3390.7755102040815,5808.102040816327,7587.734693877551
2026-01-10 21:57:11.020,30.448979591836736,3401.591836734694,3351.530612244898,5805.122448979592,7582.081632653061
2026-01-10 21:57:11.040,29.857142857142858,3323.857142857143,3312.285714285714,5802.142857142857,7576.428571428572
2026-01-10 21:57:11.060,29.26530612244898,3246.122448979592,3273.0408163265306,5799.163265306122,7570.775510204082
2026-01-10 21:57:11.080,28.6734693877551,3168.3877551020405,3233.795918367347,5796.183673469388,7565.122448979592
2026-01-10 21:57:11.100,28.081632653061224,3090.6530612244896,3194.5510204081634,5793.2040816326535,7559.469387755102
2026-01-10 21:57:11.120,27.48979591836735,3012.918367346939,3155.3061224489797,5790.224489795918,7553.816326530612
2026-01-10 21:57:11.140,26.89795918367347,2935.183673469388,3116.0612244897957,5787.244897959184,7548.163265306122
2026-01-10 21:57:11.160,26.306122448979593,2857.4489795918366,3076.816326530612,5784.265306122449,7542.510204081633
2026-01-10 21:57:11.180,25.714285714285715,2779.714285714286,3037.5714285714284,5781.285714285715,7536.857142857143
2026-01-10 21:57:11.200,25.122448979591837,2701.9795918367345,2998.326530612245,5778.306122448979,7531.2040816326535
2026-01-10 21:57:11.220,24.53061224489796,2624.2448979591836,2959.081632653061,5775.326530612245,7525.551020408163
2026-01-10 21:57:11.240,23.93877551020408,2546.5102040816328,2919.8367346938776,5772.34693877551,7519.897959183673
2026-01-10 21:57:11.260,23.346938775510203,2468.7755102040815,2880.591836734694,5769.367346938776,7514.244897959184
2026-01-10 21:57:11.280,22.755102040816325,2391.0408163265306,2841.3469387755104,5766.3877551020405,7508.591836734694
2026-01-10 21:57:11.300,22.163265306122447,2313.3061224489793,2802.1020408163267,5763.408163265306,7502.938775510204
2026-01-10 21:57:11.320,21.57142857142857,2235.5714285714284,2762.857142857143,5760.428571428572,7497.285714285715
2026-01-10 21:57:11.340,20.979591836734695,2157.8367346938776,2723.612244897959,5757.448979591837,7491.632653061224
2026-01-10 21:57:11.360,20.387755102040817,2080.1020408163267,2684.3673469387754,5754.469387755102,7485.9795918367345
2026-01-10 21:57:11.380,19.79591836734694,2002.3673469387754,2645.122448979592,5751.489795918367,7480.326530612245
2026-01-10 21:57:11.400,19.20408163265306,1924.6326530612243,2605.877551020408,5748.510204081633,7474.673469387755
2026-01-10 21:57:11.420,18.612244897959183,1846.8979591836733,2566.6326530612246,5745.530612244898,7469.0204081632655
2026-01-10 21:57:11.440,18.02040816326531,1769.1632653061224,2527.3877551020405,5742.551020408163,7463.367346938776
2026-01-10 21:57:11.460,17.42857142857143,1691.4285714285716,2488.142857142857,5739.571428571428,7457.714285714285
2026-01-10 21:57:11.480,16.836734693877553,1613.6938775510203,2448.8979591836733,5736.591836734694,7452.061224489796
2026-01-10 21:57:11.500,16.244897959183675,1535.9591836734694,2409.6530612244896,5733.6122448979595,7446.408163265306
2026-01-10 21:57:11.520,15.653061224489797,1458.224489795918,2370.408163265306,5730.632653061224,7440.755102040816
2026-01-10 21:57:11.540,15.061224489795919,1380.4897959183672,2331.1632653061224,5727.65306122449,7435.102040816327
2026-01-10 21:57:11.560,14.46938775510204,1302.7551020408164,2291.918367346939,5724.673469387755,7429.448979591837
2026-01-10 21:57:11.580,13.877551020408163,1225.020408163265,2252.673469387755,5721.693877551021,7423.7959183673465
2026-01-10 21:57:11.600,13.285714285714285,1147.2857142857142,2213.4285714285716,5718.714285714285,7418.142857142857
2026-01-10 21:57:11.620,12.693877551020407,1069.551020408163,2174.183673469388,5715.734693877551,7412.489795918367
2026-01-10 21:57:11.640,12.102040816326532,991.8163265306121,2134.9387755102043,5712.755102040816,7406.836734693878
2026-01-10 21:57:11.660,11.510204081632654,914.0816326530612,2095.6938775510203,5709.775510204082,7401.183673469388
2026-01-10 21:57:11.680,10.918367346938776,836.3469387755099,2056.4489795918366,5706.7959183673465,7395.530612244898
2026-01-10 21:57:11.700,10.326530612244898,758.612244897959,2017.204081632653,5703.816326530612,7389.877551020408
2026-01-10 21:57:11.720,9.73469387755102,680.8775510204082,1977.9591836734694,5700.836734693878,7384.224489795918
2026-01-10 21:57:11.740,9.142857142857142,603.1428571428569,1938.7142857142858,5697.857142857143,7378.571428571428
2026-01-10 21:57:11.760,8.551020408163264,525.408163265306,1899.469387755102,5694.877551020408,7372.918367346939
2026-01-10 21:57:11.780,7.95918367346939,447.6734693877552,1860.2244897959183,5691.897959183673,7367.265306122449
2026-01-10 21:57:11.800,7.367346938775512,369.93877551020387,1820.9795918367347,5688.918367346939,7361.6122448979595
2026-01-10 21:57:11.820,6.775510204081634,292.204081632653,1781.7346938775509,5685.938775510204,7355.959183673469
2026-01-10 21:57:11.840,6.183673469387756,214.4693877551017,1742.4897959183672,5682.959183673469,7350.306122448979
2026-01-10 21:57:11.860,5.591836734693878,136.73469387755085,1703.2448979591836,5679.9795918367345,7344.65306122449
2026-01-10 21:57:11.880,5.0,59.0,1664.0,5677.0,7339.0
2026-01-10 21:57:11.900,75.18181818181819,94.29090909090908,1661.3818181818183,5675.547169811321,7337.66
2026-01-10 21:57:11.920,145.36363636363637,129.58181818181816,1658.7636363636364,5674.094339622641,7336.32
2026-01-10 21:57:11.940,215.54545454545456,164.87272727272727,1656.1454545454546,5672.641509433963,7334.98
2026-01-10 21:57:11.960,285.72727272727275,200.16363636363636,1653.5272727272727,5671.188679245283,7333.64
2026-01-10 21:57:11.980,355.90909090909093,235.45454545454544,1650.909090909091,5669.735849056604,7332.3
2026-01-10 21:57:12.000,426.0909090909091,270.74545454545455,1648.290909090909,5668.2830188679245,7330.96
2026-01-10 21:57:12.020,496.2727272727273,306.0363636363636,1645.6727272727273,5666.830188679245,7329.62
2026-01-10 21:57:12.040,566.4545454545455,341.3272727272727,1643.0545454545454,5665.377358490566,7328.28
2026-01-10 21:57:12.060,636.6363636363637,376.6181818181818,1640.4363636363637,5663.924528301887,7326.94
2026-01-10 21:57:12.080,706.8181818181819,411.9090909090909,1637.8181818181818,5662.471698113208,7325.6
2026-01-10 21:57:12.100,777.0,447.2,1635.2,5661.018867924528,7324.26
2026-01-10 21:57:12.120,847.1818181818182,482.4909090909091,1632.581818181818,5659.566037735849,7322.92
2026-01-10 21:57:12.140,917.3636363636365,517.7818181818182,1629.9636363636364,5658.11320754717,7321.58
2026-01-10 21:57:12.160,987.5454545454546,553.0727272727272,1627.3454545454545,5656.66037735849,7320.24
2026-01-10 21:57:12.180,1057.7272727272727,588.3636363636364,1624.7272727272727,5655.207547169812,7318.9
2026-01-10 21:57:12.200,1127.909090909091,623.6545454545454,1622.1090909090908,5653.754716981132,7317.56
2026-01-10 21:57:12.220,1198.0909090909092,658.9454545454545,1619.490909090909,5652.301886792453,7316.22
2026-01-10 21:57:12.240,1268.2727272727275,694.2363636363636,1616.8727272727274,5650.8490566037735,7314.88
2026-01-10 21:57:12.260,1338.4545454545455,729.5272727272727,1614.2545454545455,5649.396226415094,7313.54
2026-01-10 21:57:12.280,1408.6363636363637,764.8181818181818,1611.6363636363637,5647.943396226415,7312.2
2026-01-10 21:57:12.300,1478.818181818182,800.1090909090909,1609.0181818181818,5646.490566037736,7310.86
2026-01-10 21:57:12.320,1549.0,835.4,1606.4,5645.037735849057,7309.52
2026-01-10 21:57:12.340,1619.1818181818182,870.690909090909,1603.7818181818182,5643.584905660377,7308.18
2026-01-10 21:57:12.360,1689.3636363636365,905.9818181818182,1601.1636363636364,5642.132075471698,7306.84
2026-01-10 21:57:12.380,1759.5454545454547,941.2727272727273,1598.5454545454545,5640.679245283019,7305.5
2026-01-10 21:57:12.400,1829.727272727273,976.5636363636363,1595.9272727272728,5639.226415094339,7304.16
2026-01-10 21:57:12.420,1899.909090909091,1011.8545454545454,1593.3090909090909,5637.773584905661,7302.82
2026-01-10 21:57:12.440,1970.0909090909092,1047.1454545454544,1590.6909090909091,5636.320754716981,7301.48
2026-01-10 21:57:12.460,2040.2727272727275,1082.4363636363637,1588.0727272727272,5634.867924528302,7300.14
2026-01-10 21:57:12.480,2110.4545454545455,1117.7272727272727,1585.4545454545455,5633.415094339623,7298.8
2026-01-10 21:57:12.500,2180.636363636364,1153.0181818181818,1582.8363636363636,5631.962264150943,7297.46
2026-01-10 21:57:12.520,2250.818181818182,1188.3090909090909,1580.2181818181818,5630.509433962264,7296.12
2026-01-10 21:57:12.540,2321.0,1223.6,1577.6,5629.056603773585,7294.78
2026-01-10 21:57:12.560,2391.1818181818185,1258.890909090909,1574.9818181818182,5627.603773584906,7293.44
2026-01-10 21:57:12.580,2461.3636363636365,1294.181818181818,1572.3636363636363,5626.1509433962265,7292.1
2026-01-10 21:57:12.600,2531.545454545455,1329.4727272727273,1569.7454545454545,5624.698113207547,7290.76
2026-01-10 21:57:12.620,2601.727272727273,1364.7636363636364,1567.1272727272726,5623.245283018868,7289.42
2026-01-10 21:57:12.640,2671.909090909091,1400.0545454545454,1564.509090909091,5621.792452830188,7288.08
2026-01-10 21:57:12.660,2742.0909090909095,1435.3454545454545,1561.8909090909092,5620.33962264151,7286.74
2026-01-10 21:57:12.680,2812.2727272727275,1470.6363636363635,1559.2727272727273,5618.88679245283,7285.4
2026-01-10 21:57:12.700,2882.4545454545455,1505.9272727272726,1556.6545454545455,5617.433962264151,7284.06
2026-01-10 21:57:12.720,2952.636363636364,1541.2181818181818,1554.0363636363636,5615.981132075472,7282.72
2026-01-10 21:57:12.740,3022.818181818182,1576.509090909091,1551.418181818182,5614.528301886792,7281.38
2026-01-10 21:57:12.760,3093.0,1611.8,1548.8,5613.075471698113,7280.04
2026-01-10 21:57:12.780,3163.1818181818185,1647.090909090909,1546.1818181818182,5611.622641509434,7278.7
2026-01-10 21:57:12.800,3233.3636363636365,1682.381818181818,1543.5636363636363,5610.169811320755,7277.36
2026-01-10 21:57:12.820,3303.545454545455,1717.6727272727271,1540.9454545454546,5608.7169811320755,7276.02
2026-01-10 21:57:12.840,3373.727272727273,1752.9636363636364,1538.3272727272727,5607.264150943396,7274.68
2026-01-10 21:57:12.860,3443.909090909091,1788.2545454545455,1535.709090909091,5605.811320754717,7273.34
2026-01-10 21:57:12.880,3514.0909090909095,1823.5454545454545,1533.090909090909,5604.358490566037,7272.0
2026-01-10 21:57:12.900,3584.2727272727275,1858.8363636363636,1530.4727272727273,5602.905660377359,7271.307692307692
2026-01-10 21:57:12.920,3654.454545454546,1894.1272727272726,1527.8545454545454,5601.452830188679,7270.615384615385
2026-01-10 21:57:12.940,3724.636363636364,1929.4181818181817,1525.2363636363636,5600.0,7269.923076923077
2026-01-10 21:57:12.960,3794.818181818182,1964.7090909090907,1522.6181818181817,5599.510204081633,7269.2307692307695
2026-01-10 21:57:12.980,3865.0,2000.0,1520.0,5599.0204081632655,7268.538461538462
2026-01-10 21:57:13.000,3861.021276595745,1993.6808510638298,1566.468085106383,5598.530612244898,7267.846153846154
2026-01-10 21:57:13.020,3857.0425531914893,1987.3617021276596,1612.936170212766,5598.040816326531,7267.153846153846
2026-01-10 21:57:13.040,3853.063829787234,1981.0425531914893,1659.404255319149,5597.551020408163,7266.461538461538
2026-01-10 21:57:13.060,3849.0851063829787,1974.723404255319,1705.872340425532,5597.061224489796,7265.7692307692305
2026-01-10 21:57:13.080,3845.1063829787236,1968.404255319149,1752.340425531915,5596.571428571428,7265.076923076923
2026-01-10 21:57:13.100,3841.127659574468,1962.0851063829787,1798.8085106382978,5596.081632653061,7264.384615384615
2026-01-10 21:57:13.120,3837.148936170213,1955.7659574468084,1845.276595744681,5595.591836734694,7263.692307692308
2026-01-10 21:57:13.140,3833.1702127659573,1949.4468085106382,1891.7446808510638,5595.102040816327,7263.0
2026-01-10 21:57:13.160,3829.191489361702,1943.127659574468,1938.212765957447,5594.6122448979595,7262.307692307692
2026-01-10 21:57:13.180,3825.2127659574467,1936.8085106382978,1984.6808510638298,5594.122448979592,7261.615384615385
2026-01-10 21:57:13.200,3821.2340425531916,1930.4893617021276,2031.148936170213,5593.632653061224,7260.923076923077
2026-01-10 21:57:13.220,3817.255319148936,1924.1702127659573,2077.6170212765956,5593.142857142857,7260.2307692307695
2026-01-10 21:57:13.240,3813.276595744681,1917.8510638297873,2124.0851063829787,5592.65306122449,7259.538461538462
2026-01-10 21:57:13.260,3809.2978723404253,1911.531914893617,2170.553191489362,5592.163265306122,7258.846153846154
2026-01-10 21:57:13.280,3805.31914893617,1905.212765957447,2217.021276595745,5591.673469387755,7258.153846153846
2026-01-10 21:57:13.300,3801.340425531915,1898.8936170212767,2263.4893617021276,5591.183673469388,7257.461538461538
2026-01-10 21:57:13.320,3797.3617021276596,1892.5744680851064,2309.9574468085107,5590.693877551021,7256.7692307692305
2026-01-10 21:57:13.340,3793.3829787234044,1886.2553191489362,2356.425531914894,5590.2040816326535,7256.076923076923
2026-01-10 21:57:13.360,3789.404255319149,1879.936170212766,2402.8936170212764,5589.714285714285,7255.384615384615
2026-01-10 21:57:13.380,3785.425531914894,1873.6170212765958,2449.3617021276596,5589.224489795918,7254.692307692308
2026-01-10 21:57:13.400,3781.446808510638,1867.2978723404256,2495.8297872340427,5588.734693877551,7254.0
2026-01-10 21:57:13.420,3777.468085106383,1860.9787234042553,2542.297872340426,5588.244897959184,7253.307692307692
2026-01-10 21:57:13.440,3773.4893617021276,1854.659574468085,2588.7659574468084,5587.755102040816,7252.615384615385
2026-01-10 21:57:13.460,3769.5106382978724,1848.340425531915,2635.2340425531916,5587.265306122449,7251.923076923077
2026-01-10 21:57:13.480,3765.531914893617,1842.0212765957447,2681.702127659574,5586.775510204082,7251.2307692307695
2026-01-10 21:57:13.500,3761.553191489362,1835.7021276595744,2728.1702127659573,5586.285714285715,7250.538461538462
2026-01-10 21:57:13.520,3757.574468085106,1829.3829787234042,2774.6382978723404,5585.7959183673465,7249.846153846154
2026-01-10 21:57:13.540,3753.595744680851,1823.063829787234,2821.1063829787236,5585.306122448979,7249.153846153846
2026-01-10 21:57:13.560,3749.6170212765956,1816.7446808510638,2867.5744680851067,5584.816326530612,7248.461538461538
2026-01-10 21:57:13.580,3745.6382978723404,1810.4255319148936,2914.0425531914893,5584.326530612245,7247.7692307692305
2026-01-10 21:57:13.600,3741.6595744680853,1804.1063829787233,2960.5106382978724,5583.836734693878,7247.076923076923
2026-01-10 21:57:13.620,3737.68085106383,1797.787234042553,3006.978723404255,5583.34693877551,7246.384615384615
2026-01-10 21:57:13.640,3733.7021276595747,1791.468085106383,3053.446808510638,5582.857142857143,7245.692307692308
2026-01-10 21:57:13.660,3729.723404255319,1785.148936170213,3099.9148936170213,5582.367346938776,7245.0
2026-01-10 21:57:13.680,3725.744680851064,1778.8297872340427,3146.3829787234044,5581.877551020408,7244.307692307692
2026-01-10 21:57:13.700,3721.7659574468084,1772.5106382978724,3192.8510638297876,5581.3877551020405,7243.615384615385
2026-01-10 21:57:13.720,3717.7872340425533,1766.1914893617022,3239.31914893617,5580.897959183673,7242.923076923077
2026-01-10 21:57:13.740,3713.808510638298,1759.872340425532,3285.787234042553,5580.408163265306,7242.2307692307695
2026-01-10 21:57:13.760,3709.8297872340427,1753.5531914893618,3332.255319148936,5579.918367346939,7241.538461538462
2026-01-10 21:57:13.780,3705.851063829787,1747.2340425531916,3378.723404255319,5579.428571428572,7240.846153846154
2026-01-10 21:57:13.800,3701.872340425532,1740.9148936170213,3425.191489361702,5578.938775510204,7240.153846153846
2026-01-10 21:57:13.820,3697.8936170212764,1734.595744680851,3471.6595744680853,5578.448979591837,7239.461538461538
2026-01-10 21:57:13.840,3693.9148936170213,1728.276595744681,3518.127659574468,5577.959183673469,7238.7692307692305
2026-01-10 21:57:13.860,3689.936170212766,1721.9574468085107,3564.595744680851,5577.469387755102,7238.076923076923
2026-01-10 21:57:13.880,3685.9574468085107,1715.6382978723404,3611.063829787234,5576.9795918367345,7237.384615384615
2026-01-10 21:57:13.900,3681.978723404255,1709.3191489361702,3657.531914893617,5576.489795918367,7236.692307692308
2026-01-10 21:57:13.920,3678.0,1703.0,3704.0,5576.0,7236.0
2026-01-10 21:57:13.940,3678.5102040816328,1669.265306122449,3630.530612244898,5577.183673469388,7241.9795918367345
2026-01-10 21:57:13.960,3679.0204081632655,1635.5306122448978,3557.0612244897957,5578.367346938776,7247.959183673469
2026-01-10 21:57:13.980,3679.530612244898,1601.795918367347,3483.591836734694,5579.551020408163,7253.938775510204
2026-01-10 21:57:14.000,3680.0408163265306,1568.061224489796,3410.122448979592,5580.734693877551,7259.918367346939
2026-01-10 21:57:14.020,3680.5510204081634,1534.3265306122448,3336.6530612244896,5581.918367346939,7265.897959183673
2026-01-10 21:57:14.040,3681.061224489796,1500.591836734694,3263.183673469388,5583.102040816327,7271.877551020408
2026-01-10 21:57:14.060,3681.5714285714284,1466.857142857143,3189.714285714286,5584.285714285715,7277.857142857143
2026-01-10 21:57:14.080,3682.081632653061,1433.1224489795918,3116.2448979591836,5585.469387755102,7283.836734693878
2026-01-10 21:57:14.100,3682.591836734694,1399.3877551020407,3042.7755102040815,5586.65306122449,7289.816326530612
2026-01-10 21:57:14.120,3683.1020408163267,1365.6530612244896,2969.3061224489793,5587.836734693878,7295.7959183673465
2026-01-10 21:57:14.140,3683.612244897959,1331.9183673469388,2895.8367346938776,5589.0204081632655,7301.775510204082
2026-01-10 21:57:14.160,3684.122448979592,1298.1836734693877,2822.3673469387754,5590.2040816326535,7307.755102040816
2026-01-10 21:57:14.180,3684.6326530612246,1264.4489795918366,2748.8979591836733,5591.3877551020405,7313.734693877551
2026-01-10 21:57:14.200,3685.1428571428573,1230.7142857142858,2675.4285714285716,5592.571428571428,7319.714285714285
2026-01-10 21:57:14.220,3685.6530612244896,1196.9795918367347,2601.9591836734694,5593.755102040816,7325.693877551021
2026-01-10 21:57:14.240,3686.1632653061224,1163.2448979591836,2528.4897959183672,5594.938775510204,7331.673469387755
2026-01-10 21:57:14.260,3686.673469387755,1129.5102040816325,2455.020408163265,5596.122448979592,7337.65306122449
2026-01-10 21:57:14.280,3687.183673469388,1095.7755102040815,2381.551020408163,5597.306122448979,7343.632653061224
2026-01-10 21:57:14.300,3687.6938775510203,1062.0408163265306,2308.081632653061,5598.489795918367,7349.6122448979595
2026-01-10 21:57:14.320,3688.204081632653,1028.3061224489795,2234.612244897959,5599.673469387755,7355.591836734694
2026-01-10 21:57:14.340,3688.714285714286,994.5714285714284,2161.142857142857,5600.857142857143,7361.571428571428
2026-01-10 21:57:14.360,3689.2244897959185,960.8367346938775,2087.673469387755,5602.040816326531,7367.551020408163
2026-01-10 21:57:14.380,3689.734693877551,927.1020408163265,2014.204081632653,5603.224489795918,7373.530612244898
2026-01-10 21:57:14.400,3690.2448979591836,893.3673469387754,1940.7346938775509,5604.408163265306,7379.510204081633
2026-01-10 21:57:14.420,3690.7551020408164,859.6326530612243,1867.2653061224487,5605.591836734694,7385.489795918367
2026-01-10 21:57:14.440,3691.265306122449,825.8979591836734,1793.7959183673468,5606.775510204082,7391.469387755102
2026-01-10 21:57:14.460,3691.7755102040815,792.1632653061224,1720.3265306122448,5607.959183673469,7397.448979591837
2026-01-10 21:57:14.480,3692.285714285714,758.4285714285713,1646.8571428571427,5609.142857142857,7403.428571428572
2026-01-10 21:57:14.500,3692.795918367347,724.6938775510203,1573.3877551020405,5610.326530612245,7409.408163265306
2026-01-10 21:57:14.520,3693.3061224489797,690.9591836734693,1499.9183673469388,5611.510204081633,7415.3877551020405
2026-01-10 21:57:14.540,3693.816326530612,657.2244897959183,1426.4489795918366,5612.693877551021,7421.367346938776
2026-01-10 21:57:14.560,3694.326530612245,623.4897959183672,1352.9795918367345,5613.877551020408,7427.34693877551
2026-01-10 21:57:14.580,3694.8367346938776,589.7551020408162,1279.5102040816323,5615.061224489796,7433.326530612245
2026-01-10 21:57:14.600,3695.3469387755104,556.0204081632651,1206.0408163265301,5616.244897959184,7439.306122448979
2026-01-10 21:57:14.620,3695.8571428571427,522.2857142857142,1132.5714285714284,5617.428571428572,7445.285714285715
2026-01-10 21:57:14.640,3696.3673469387754,488.55102040816314,1059.1020408163263,5618.6122448979595,7451.265306122449
2026-01-10 21:57:14.660,3696.877551020408,454.81632653061206,985.6326530612241,5619.7959183673465,7457.244897959184
2026-01-10 21:57:14.680,3697.387755102041,421.0816326530612,912.1632653061224,5620.9795918367345,7463.224489795918
2026-01-10 21:57:14.700,3697.8979591836733,387.3469387755101,838.6938775510203,5622.163265306122,7469.2040816326535
2026-01-10 21:57:14.720,3698.408163265306,353.61224489795904,765.2244897959181,5623.34693877551,7475.183673469388
2026-01-10 21:57:14.740,3698.918367346939,319.87755102040796,691.7551020408159,5624.530612244898,7481.163265306122
2026-01-10 21:57:14.760,3699.4285714285716,286.1428571428569,618.2857142857138,5625.714285714285,7487.142857142857
2026-01-10 21:57:14.780,3699.938775510204,252.40816326530603,544.8163265306121,5626.897959183673,7493.122448979592
2026-01-10 21:57:14.800,3700.4489795918366,218.67346938775495,471.3469387755099,5628.081632653061,7499.102040816327
2026-01-10 21:57:14.820,3700.9591836734694,184.93877551020387,397.87755102040774,5629.265306122449,7505.081632653061
2026-01-10 21:57:14.840,3701.469387755102,151.20408163265301,324.40816326530603,5630.448979591837,7511.061224489796
2026-01-10 21:57:14.860,3701.9795918367345,117.46938775510193,250.93877551020387,5631.632653061224,7517.040816326531
2026-01-10 21:57:14.880,3702.4897959183672,83.73469387755085,177.4693877551017,5632.816326530612,7523.0204081632655
2026-01-10 21:57:14.900,3703.0,50.0,104.0,5634.0,7529.0
