timestamp,accX,accY,accZ,ppg,spO2
2026-01-10 21:54:28.140,2017.0,3889.0,1530.0,5655.0,7148.0
2026-01-10 21:54:28.160,2016.795918367347,3846.1020408163267,1530.0816326530612,5656.9795918367345,7153.7959183673465
2026-01-10 21:54:28.180,2016.591836734694,3803.204081632653,1530.1632653061224,5658.959183673469,7159.591836734694
2026-01-10 21:54:28.200,2016.3877551020407,3760.3061224489797,1530.2448979591836,5660.938775510204,7165.3877551020405
2026-01-10 21:54:28.220,2016.1836734693877,3717.408163265306,1530.3265306122448,5662.918367346939,7171.183673469388
2026-01-10 21:54:28.240,2015.9795918367347,3674.5102040816328,1530.408163265306,5664.897959183673,7176.9795918367345
2026-01-10 21:54:28.260,2015.7755102040817,3631.612244897959,1530.4897959183672,5666.877551020408,7182.775510204082
2026-01-10 21:54:28.280,2015.5714285714287,3588.714285714286,1530.5714285714287,5668.857142857143,7188.571428571428
2026-01-10 21:54:28.300,2015.3673469387754,3545.816326530612,1530.6530612244899,5670.836734693878,7194.367346938776
2026-01-10 21:54:28.320,2015.1632653061224,3502.918367346939,1530.734693877551,5672.816326530612,7200.163265306122
2026-01-10 21:54:28.340,2014.9591836734694,3460.0204081632655,1530.8163265306123,5674.7959183673465,7205.959183673469
2026-01-10 21:54:28.360,2014.7551020408164,3417.122448979592,1530.8979591836735,5676.775510204082,7211.755102040816
2026-01-10 21:54:28.380,2014.5510204081634,3374.224489795918,1530.9795918367347,5678.755102040816,7217.551020408163
2026-01-10 21:54:28.400,2014.3469387755101,3331.326530612245,1531.061224489796,5680.734693877551,7223.34693877551
2026-01-10 21:54:28.420,2014.142857142857,3288.4285714285716,1531.142857142857,5682.714285714285,7229.142857142857
2026-01-10 21:54:28.440,2013.938775510204,3245.530612244898,1531.2244897959183,5684.693877551021,7234.938775510204
2026-01-10 21:54:28.460,2013.734693877551,3202.6326530612246,1531.3061224489795,5686.673469387755,7240.734693877551
2026-01-10 21:54:28.480,2013.530612244898,3159.734693877551,1531.3877551020407,5688.65306122449,7246.530612244898
2026-01-10 21:54:28.500,2013.3265306122448,3116.8367346938776,1531.469387755102,5690.632653061224,7252.326530612245
2026-01-10 21:54:28.520,2013.1224489795918,3073.9387755102043,1531.5510204081634,5692.6122448979595,7258.122448979592
2026-01-10 21:54:28.540,2012.9183673469388,3031.0408163265306,1531.6326530612246,5694.591836734694,7263.918367346939
2026-01-10 21:54:28.560,2012.7142857142858,2988.142857142857,1531.7142857142858,5696.571428571428,7269.714285714285
2026-01-10 21:54:28.580,2012.5102040816328,2945.2448979591836,1531.795918367347,5698.551020408163,7275.510204081633
2026-01-10 21:54:28.600,2012.3061224489795,2902.3469387755104,1531.8775510204082,5700.530612244898,7281.306122448979
2026-01-10 21:54:28.620,2012.1020408163265,2859.4489795918366,1531.9591836734694,5702.510204081633,7287.102040816327
2026-01-10 21:54:28.640,2011.8979591836735,2816.551020408163,1532.0408163265306,5704.489795918367,7292.897959183673
2026-01-10 21:54:28.660,2011.6938775510205,2773.6530612244896,1532.1224489795918,5706.469387755102,7298.693877551021
2026-01-10 21:54:28.680,2011.4897959183672,2730.7551020408164,1532.204081632653,5708.448979591837,7304.489795918367
2026-01-10 21:54:28.700,2011.2857142857142,2687.857142857143,1532.2857142857142,5710.428571428572,7310.285714285715
2026-01-10 21:54:28.720,2011.0816326530612,2644.9591836734694,1532.3673469387754,5712.408163265306,7316.081632653061
2026-01-10 21:54:28.740,2010.8775510204082,2602.0612244897957,1532.4489795918366,5714.3877551020405,7321.877551020408
2026-01-10 21:54:28.760,2010.6734693877552,2559.1632653061224,1532.530612244898,5716.367346938776,7327.673469387755
2026-01-10 21:54:28.780,2010.469387755102,2516.265306122449,1532.6122448979593,5718.34693877551,7333.469387755102
2026-01-10 21:54:28.800,2010.265306122449,2473.3673469387754,1532.6938775510205,5720.326530612245,7339.265306122449
2026-01-10 21:54:28.820,2010.061224489796,2430.4693877551017,1532.7755102040817,5722.306122448979,7345.061224489796
2026-01-10 21:54:28.840,2009.857142857143,2387.5714285714284,1532.857142857143,5724.285714285715,7350.857142857143
2026-01-10 21:54:28.860,2009.6530612244899,2344.673469387755,1532.938775510204,5726.265306122449,7356.65306122449
2026-01-10 21:54:28.880,2009.4489795918366,2301.7755102040815,1533.0204081632653,5728.244897959184,7362.448979591837
2026-01-10 21:54:28.900,2009.2448979591836,2258.877551020408,1533.1020408163265,5730.224489795918,7368.244897959184
2026-01-10 21:54:28.920,2009.0408163265306,2215.9795918367345,1533.1836734693877,5732.2040816326535,7374.040816326531
2026-01-10 21:54:28.940,2008.8367346938776,2173.081632653061,1533.265306122449,5734.183673469388,7379.836734693878
2026-01-10 21:54:28.960,2008.6326530612246,2130.183673469388,1533.3469387755101,5736.163265306122,7385.632653061224
2026-01-10 21:54:28.980,2008.4285714285713,2087.285714285714,1533.4285714285713,5738.142857142857,7391.428571428572
2026-01-10 21:54:29.000,2008.2244897959183,2044.3877551020407,1533.5102040816328,5740.122448979592,7397.224489795918
2026-01-10 21:54:29.020,2008.0204081632653,2001.4897959183672,1533.591836734694,5742.102040816327,7403.0204081632655
2026-01-10 21:54:29.040,2007.8163265306123,1958.5918367346937,1533.6734693877552,5744.081632653061,7408.816326530612
2026-01-10 21:54:29.060,2007.6122448979593,1915.6938775510203,1533.7551020408164,5746.061224489796,7414.6122448979595
2026-01-10 21:54:29.080,2007.408163265306,1872.7959183673468,1533.8367346938776,5748.040816326531,7420.408163265306
2026-01-10 21:54:29.100,2007.204081632653,1829.8979591836733,1533.9183673469388,5750.0204081632655,7426.2040816326535
2026-01-10 21:54:29.120,2007.0,1787.0,1534.0,5752.0,7432.0
2026-01-10 21:54:29.140,1969.8301886792453,1826.8301886792453,1572.754716981132,5751.962264150943,7433.981132075472
2026-01-10 21:54:29.160,1932.6603773584907,1866.6603773584907,1611.5094339622642,5751.924528301887,7435.962264150943
2026-01-10 21:54:29.180,1895.4905660377358,1906.4905660377358,1650.2641509433963,5751.88679245283,7437.943396226415
2026-01-10 21:54:29.200,1858.3207547169811,1946.3207547169811,1689.0188679245284,5751.8490566037735,7439.924528301887
2026-01-10 21:54:29.220,1821.1509433962265,1986.1509433962265,1727.7735849056603,5751.811320754717,7441.905660377359
2026-01-10 21:54:29.240,1783.9811320754716,2025.9811320754716,1766.5283018867924,5751.773584905661,7443.88679245283
2026-01-10 21:54:29.260,1746.811320754717,2065.811320754717,1805.2830188679245,5751.735849056604,7445.867924528302
2026-01-10 21:54:29.280,1709.6415094339623,2105.6415094339623,1844.0377358490566,5751.698113207547,7447.8490566037735
2026-01-10 21:54:29.300,1672.4716981132076,2145.4716981132074,1882.7924528301887,5751.66037735849,7449.830188679245
2026-01-10 21:54:29.320,1635.301886792453,2185.301886792453,1921.5471698113208,5751.622641509434,7451.811320754717
2026-01-10 21:54:29.340,1598.132075471698,2225.132075471698,1960.301886792453,5751.584905660377,7453.792452830188
2026-01-10 21:54:29.360,1560.9622641509434,2264.962264150943,1999.0566037735848,5751.547169811321,7455.773584905661
2026-01-10 21:54:29.380,1523.7924528301887,2304.7924528301887,2037.8113207547171,5751.509433962264,7457.754716981132
2026-01-10 21:54:29.400,1486.6226415094338,2344.622641509434,2076.566037735849,5751.471698113208,7459.735849056604
2026-01-10 21:54:29.420,1449.4528301886792,2384.4528301886794,2115.3207547169814,5751.433962264151,7461.7169811320755
2026-01-10 21:54:29.440,1412.2830188679245,2424.2830188679245,2154.0754716981132,5751.396226415094,7463.698113207547
2026-01-10 21:54:29.460,1375.1132075471698,2464.1132075471696,2192.830188679245,5751.358490566037,7465.679245283019
2026-01-10 21:54:29.480,1337.9433962264152,2503.943396226415,2231.5849056603774,5751.320754716981,7467.66037735849
2026-01-10 21:54:29.500,1300.7735849056603,2543.7735849056603,2270.3396226415093,5751.2830188679245,7469.641509433963
2026-01-10 21:54:29.520,1263.6037735849056,2583.603773584906,2309.0943396226417,5751.245283018868,7471.622641509434
2026-01-10 21:54:29.540,1226.433962264151,2623.433962264151,2347.8490566037735,5751.207547169812,7473.603773584906
2026-01-10 21:54:29.560,1189.264150943396,2663.264150943396,2386.603773584906,5751.169811320755,7475.584905660377
2026-01-10 21:54:29.580,1152.0943396226414,2703.094339622641,2425.3584905660377,5751.132075471698,7477.566037735849
2026-01-10 21:54:29.600,1114.9245283018868,2742.9245283018868,2464.1132075471696,5751.094339622641,7479.547169811321
2026-01-10 21:54:29.620,1077.754716981132,2782.7547169811323,2502.867924528302,5751.056603773585,7481.528301886792
2026-01-10 21:54:29.640,1040.5849056603774,2822.5849056603774,2541.6226415094343,5751.018867924528,7483.509433962264
2026-01-10 21:54:29.660,1003.4150943396226,2862.4150943396226,2580.377358490566,5750.981132075472,7485.490566037736
2026-01-10 21:54:29.680,966.2452830188679,2902.2452830188677,2619.132075471698,5750.943396226415,7487.471698113208
2026-01-10 21:54:29.700,929.0754716981132,2942.0754716981132,2657.8867924528304,5750.905660377359,7489.452830188679
2026-01-10 21:54:29.720,891.9056603773583,2981.9056603773583,2696.6415094339623,5750.867924528302,7491.433962264151
2026-01-10 21:54:29.740,854.7358490566037,3021.735849056604,2735.396226415094,5750.830188679245,7493.415094339623
2026-01-10 21:54:29.760,817.566037735849,3061.566037735849,2774.1509433962265,5750.792452830188,7495.396226415094
2026-01-10 21:54:29.780,780.3962264150944,3101.396226415094,2812.905660377359,5750.754716981132,7497.377358490566
2026-01-10 21:54:29.800,743.2264150943397,3141.2264150943397,2851.6603773584907,5750.7169811320755,7499.358490566037
2026-01-10 21:54:29.820,706.0566037735848,3181.056603773585,2890.4150943396226,5750.679245283019,7501.33962264151
2026-01-10 21:54:29.840,668.8867924528302,3220.8867924528304,2929.169811320755,5750.641509433963,7503.320754716981
2026-01-10 21:54:29.860,631.7169811320755,3260.7169811320755,2967.9245283018868,5750.603773584906,7505.301886792453
2026-01-10 21:54:29.880,594.5471698113206,3300.5471698113206,3006.6792452830186,5750.566037735849,7507.2830188679245
2026-01-10 21:54:29.900,557.3773584905659,3340.3773584905657,3045.433962264151,5750.528301886792,7509.264150943396
2026-01-10 21:54:29.920,520.2075471698113,3380.2075471698113,3084.1886792452833,5750.490566037736,7511.245283018868
2026-01-10 21:54:29.940,483.0377358490566,3420.037735849057,3122.943396226415,5750.452830188679,7513.226415094339
2026-01-10 21:54:29.960,445.86792452830196,3459.867924528302,3161.698113207547,5750.415094339623,7515.207547169812
2026-01-10 21:54:29.980,408.69811320754707,3499.698113207547,3200.4528301886794,5750.377358490566,7517.188679245283
2026-01-10 21:54:30.000,371.5283018867924,3539.528301886792,3239.2075471698113,5750.33962264151,7519.169811320755
2026-01-10 21:54:30.020,334.35849056603774,3579.3584905660377,3277.962264150943,5750.301886792453,7521.1509433962265
2026-01-10 21:54:30.040,297.18867924528286,3619.188679245283,3316.7169811320755,5750.264150943396,7523.132075471698
2026-01-10 21:54:30.060,260.0188679245282,3659.0188679245284,3355.471698113208,5750.226415094339,7525.11320754717
2026-01-10 21:54:30.080,222.84905660377353,3698.8490566037735,3394.2264150943397,5750.188679245283,7527.094339622641
2026-01-10 21:54:30.100,185.67924528301887,3738.6792452830186,3432.9811320754716,5750.1509433962265,7529.075471698113
2026-01-10 21:54:30.120,148.5094339622642,3778.509433962264,3471.735849056604,5750.11320754717,7531.056603773585
2026-01-10 21:54:30.140,111.33962264150932,3818.3396226415093,3510.4905660377362,5750.075471698113,7533.037735849057
2026-01-10 21:54:30.160,74.16981132075466,3858.169811320755,3549.245283018868,5750.037735849057,7535.018867924528
2026-01-10 21:54:30.180,37.0,3898.0,3588.0,5750.0,7537.0
2026-01-10 21:54:30.200,78.06521739130434,3851.0652173913045,3588.391304347826,5747.413043478261,7533.804347826087
2026-01-10 21:54:30.220,119.1304347826087,3804.1304347826085,3588.782608695652,5744.826086956522,7530.608695652174
2026-01-10 21:54:30.240,160.19565217391306,3757.195652173913,3589.1739130434785,5742.239130434783,7527.413043478261
2026-01-10 21:54:30.260,201.2608695652174,3710.2608695652175,3589.5652173913045,5739.652173913043,7524.217391304348
2026-01-10 21:54:30.280,242.32608695652175,3663.326086956522,3589.9565217391305,5737.065217391304,7521.021739130435
2026-01-10 21:54:30.300,283.3913043478261,3616.391304347826,3590.3478260869565,5734.478260869565,7517.826086956522
2026-01-10 21:54:30.320,324.45652173913044,3569.4565217391305,3590.7391304347825,5731.891304347826,7514.630434782609
2026-01-10 21:54:30.340,365.5217391304348,3522.521739130435,3591.1304347826085,5729.304347826087,7511.434782608696
2026-01-10 21:54:30.360,406.5869565217392,3475.586956521739,3591.521739130435,5726.717391304348,7508.239130434783
2026-01-10 21:54:30.380,447.6521739130435,3428.6521739130435,3591.913043478261,5724.130434782609,7505.04347826087
2026-01-10 21:54:30.400,488.71739130434787,3381.717391304348,3592.304347826087,5721.54347826087,7501.847826086957
2026-01-10 21:54:30.420,529.7826086956522,3334.782608695652,3592.695652173913,5718.95652173913,7498.652173913043
2026-01-10 21:54:30.440,570.8478260869566,3287.8478260869565,3593.086956521739,5716.369565217391,7495.45652173913
2026-01-10 21:54:30.460,611.9130434782609,3240.913043478261,3593.478260869565,5713.782608695652,7492.260869565217
2026-01-10 21:54:30.480,652.9782608695652,3193.978260869565,3593.8695652173915,5711.195652173913,7489.065217391304
2026-01-10 21:54:30.500,694.0434782608696,3147.0434782608695,3594.2608695652175,5708.608695652174,7485.869565217391
2026-01-10 21:54:30.520,735.108695652174,3100.108695652174,3594.6521739130435,5706.021739130435,7482.673913043478
2026-01-10 21:54:30.540,776.1739130434784,3053.1739130434785,3595.0434782608695,5703.434782608696,7479.478260869565
2026-01-10 21:54:30.560,817.2391304347826,3006.2391304347825,3595.4347826086955,5700.847826086957,7476.282608695652
2026-01-10 21:54:30.580,858.304347826087,2959.304347826087,3595.8260869565215,5698.260869565217,7473.086956521739
2026-01-10 21:54:30.600,899.3695652173914,2912.3695652173915,3596.217391304348,5695.673913043478,7469.891304347826
2026-01-10 21:54:30.620,940.4347826086957,2865.434782608696,3596.608695652174,5693.086956521739,7466.695652173913
2026-01-10 21:54:30.640,981.5000000000001,2818.5,3597.0,5690.5,7463.5
2026-01-10 21:54:30.660,1022.5652173913045,2771.5652173913045,3597.391304347826,5687.913043478261,7460.304347826087
2026-01-10 21:54:30.680,1063.6304347826087,2724.630434782609,3597.782608695652,5685.326086956522,7457.108695652174
2026-01-10 21:54:30.700,1104.6956521739132,2677.695652173913,3598.1739130434785,5682.739130434783,7453.913043478261
2026-01-10 21:54:30.720,1145.7608695652175,2630.7608695652175,3598.5652173913045,5680.152173913043,7450.717391304348
2026-01-10 21:54:30.740,1186.8260869565217,2583.826086956522,3598.9565217391305,5677.565217391304,7447.521739130435
2026-01-10 21:54:30.760,1227.8913043478262,2536.891304347826,3599.3478260869565,5674.978260869565,7444.326086956522
2026-01-10 21:54:30.780,1268.9565217391305,2489.9565217391305,3599.7391304347825,5672.391304347826,7441.130434782609
2026-01-10 21:54:30.800,1310.021739130435,2443.021739130435,3600.1304347826085,5669.804347826087,7437.934782608696
2026-01-10 21:54:30.820,1351.0869565217392,2396.086956521739,3600.521739130435,5667.217391304348,7434.739130434783
2026-01-10 21:54:30.840,1392.1521739130435,2349.1521739130435,3600.913043478261,5664.630434782609,7431.54347826087
2026-01-10 21:54:30.860,1433.217391304348,2302.217391304348,3601.304347826087,5662.04347826087,7428.347826086957
2026-01-10 21:54:30.880,1474.2826086956522,2255.282608695652,3601.695652173913,5659.45652173913,7425.152173913043
2026-01-10 21:54:30.900,1515.3478260869567,2208.347826086957,3602.086956521739,5656.869565217391,7421.95652173913
2026-01-10 21:54:30.920,1556.413043478261,2161.413043478261,3602.478260869565,5654.282608695652,7418.760869565217
2026-01-10 21:54:30.940,1597.4782608695652,2114.478260869565,3602.8695652173915,5651.695652173913,7415.565217391304
2026-01-10 21:54:30.960,1638.5434782608697,2067.54347826087,3603.2608695652175,5649.108695652174,7412.369565217391
2026-01-10 21:54:30.980,1679.608695652174,2020.608695652174,3603.6521739130435,5646.521739130435,7409.173913043478
2026-01-10 21:54:31.000,1720.6739130434785,1973.6739130434785,3604.0434782608695,5643.934782608696,7405.978260869565
2026-01-10 21:54:31.020,1761.7391304347827,1926.7391304347827,3604.4347826086955,5641.347826086957,7402.782608695652
2026-01-10 21:54:31.040,1802.804347826087,1879.804347826087,3604.8260869565215,5638.760869565217,7399.586956521739
2026-01-10 21:54:31.060,1843.8695652173915,1832.8695652173915,3605.217391304348,5636.173913043478,7396.391304347826
2026-01-10 21:54:31.080,1884.9347826086957,1785.934782608696,3605.608695652174,5633.586956521739,7393.195652173913
2026-01-10 21:54:31.100,1926.0,1739.0,3606.0,5631.0,7390.0
2026-01-10 21:54:31.120,1889.9811320754718,1742.4528301886792,3566.3396226415093,5632.207547169812,7390.773584905661
2026-01-10 21:54:31.140,1853.9622641509434,1745.9056603773586,3526.6792452830186,5633.415094339623,7391.547169811321
2026-01-10 21:54:31.160,1817.9433962264152,1749.3584905660377,3487.0188679245284,5634.622641509434,7392.320754716981
2026-01-10 21:54:31.180,1781.9245283018868,1752.811320754717,3447.3584905660377,5635.830188679245,7393.094339622641
2026-01-10 21:54:31.200,1745.9056603773586,1756.2641509433963,3407.698113207547,5637.037735849057,7393.867924528302
2026-01-10 21:54:31.220,1709.8867924528302,1759.7169811320755,3368.037735849057,5638.245283018868,7394.641509433963
2026-01-10 21:54:31.240,1673.867924528302,1763.1698113207547,3328.377358490566,5639.452830188679,7395.415094339623
2026-01-10 21:54:31.260,1637.8490566037735,1766.622641509434,3288.7169811320755,5640.66037735849,7396.188679245283
2026-01-10 21:54:31.280,1601.8301886792453,1770.0754716981132,3249.056603773585,5641.867924528302,7396.962264150943
2026-01-10 21:54:31.300,1565.811320754717,1773.5283018867924,3209.396226415094,5643.075471698113,7397.735849056604
2026-01-10 21:54:31.320,1529.7924528301887,1776.9811320754718,3169.735849056604,5644.2830188679245,7398.509433962264
2026-01-10 21:54:31.340,1493.7735849056603,1780.433962264151,3130.0754716981132,5645.490566037736,7399.2830188679245
2026-01-10 21:54:31.360,1457.754716981132,1783.8867924528302,3090.4150943396226,5646.698113207547,7400.056603773585
2026-01-10 21:54:31.380,1421.735849056604,1787.3396226415093,3050.7547169811323,5647.905660377359,7400.830188679245
2026-01-10 21:54:31.400,1385.7169811320755,1790.7924528301887,3011.0943396226417,5649.11320754717,7401.603773584906
2026-01-10 21:54:31.420,1349.698113207547,1794.245283018868,2971.433962264151,5650.320754716981,7402.377358490566
2026-01-10 21:54:31.440,1313.6792452830189,1797.698113207547,2931.7735849056603,5651.528301886792,7403.1509433962265
2026-01-10 21:54:31.460,1277.6603773584907,1801.1509433962265,2892.1132075471696,5652.735849056604,7403.924528301887
2026-01-10 21:54:31.480,1241.6415094339623,1804.6037735849056,2852.4528301886794,5653.943396226415,7404.698113207547
2026-01-10 21:54:31.500,1205.6226415094338,1808.0566037735848,2812.7924528301887,5655.1509433962265,7405.471698113208
2026-01-10 21:54:31.520,1169.6037735849056,1811.5094339622642,2773.132075471698,5656.358490566037,7406.245283018868
2026-01-10 21:54:31.540,1133.5849056603774,1814.9622641509434,2733.471698113208,5657.566037735849,7407.018867924528
2026-01-10 21:54:31.560,1097.566037735849,1818.4150943396226,2693.811320754717,5658.773584905661,7407.792452830188
2026-01-10 21:54:31.580,1061.5471698113208,1821.867924528302,2654.1509433962265,5659.981132075472,7408.566037735849
2026-01-10 21:54:31.600,1025.5283018867926,1825.3207547169811,2614.490566037736,5661.188679245283,7409.33962264151
2026-01-10 21:54:31.620,989.5094339622642,1828.7735849056603,2574.830188679245,5662.396226415094,7410.11320754717
2026-01-10 21:54:31.640,953.4905660377359,1832.2264150943397,2535.169811320755,5663.603773584906,7410.88679245283
2026-01-10 21:54:31.660,917.4716981132076,1835.6792452830189,2495.509433962264,5664.811320754717,7411.66037735849
2026-01-10 21:54:31.680,881.4528301886792,1839.132075471698,2455.8490566037735,5666.018867924528,7412.433962264151
2026-01-10 21:54:31.700,845.433962264151,1842.5849056603774,2416.1886792452833,5667.226415094339,7413.207547169812
2026-01-10 21:54:31.720,809.4150943396226,1846.0377358490566,2376.5283018867926,5668.433962264151,7413.981132075472
2026-01-10 21:54:31.740,773.3962264150944,1849.4905660377358,2336.867924528302,5669.641509433963,7414.754716981132
2026-01-10 21:54:31.760,737.3773584905662,1852.9433962264152,2297.2075471698113,5670.8490566037735,7415.528301886792
2026-01-10 21:54:31.780,701.3584905660377,1856.3962264150944,2257.5471698113206,5672.056603773585,7416.301886792453
2026-01-10 21:54:31.800,665.3396226415095,1859.8490566037735,2217.8867924528304,5673.264150943396,7417.075471698113
2026-01-10 21:54:31.820,629.3207547169811,1863.301886792453,2178.2264150943397,5674.471698113208,7417.8490566037735
2026-01-10 21:54:31.840,593.3018867924529,1866.754716981132,2138.566037735849,5675.679245283019,7418.622641509434
2026-01-10 21:54:31.860,557.2830188679245,1870.2075471698113,2098.905660377359,5676.88679245283,7419.396226415094
2026-01-10 21:54:31.880,521.2641509433963,1873.6603773584907,2059.245283018868,5678.094339622641,7420.169811320755
2026-01-10 21:54:31.900,485.2452830188679,1877.1132075471698,2019.5849056603774,5679.301886792453,7420.943396226415
2026-01-10 21:54:31.920,449.2264150943397,1880.566037735849,1979.9245283018868,5680.509433962264,7421.7169811320755
2026-01-10 21:54:31.940,413.2075471698113,1884.0188679245284,1940.2641509433963,5681.7169811320755,7422.490566037736
2026-01-10 21:54:31.960,377.1886792452831,1887.4716981132076,1900.6037735849059,5682.924528301887,7423.264150943396
2026-01-10 21:54:31.980,341.16981132075466,1890.9245283018868,1860.9433962264152,5684.132075471698,7424.037735849057
2026-01-10 21:54:32.000,305.15094339622647,1894.377358490566,1821.2830188679245,5685.33962264151,7424.811320754717
2026-01-10 21:54:32.020,269.13207547169804,1897.8301886792453,1781.622641509434,5686.547169811321,7425.584905660377
2026-01-10 21:54:32.040,233.11320754716985,1901.2830188679245,1741.9622641509436,5687.754716981132,7426.358490566037
2026-01-10 21:54:32.060,197.09433962264166,1904.7358490566037,1702.301886792453,5688.962264150943,7427.132075471698
2026-01-10 21:54:32.080,161.07547169811323,1908.188679245283,1662.6415094339623,5690.169811320755,7427.905660377359
2026-01-10 21:54:32.100,125.05660377358504,1911.6415094339623,1622.9811320754718,5691.377358490566,7428.679245283019
2026-01-10 21:54:32.120,89.03773584905662,1915.0943396226414,1583.3207547169814,5692.584905660377,7429.452830188679
2026-01-10 21:54:32.140,53.01886792452842,1918.5471698113208,1543.6603773584907,5693.792452830188,7430.226415094339
2026-01-10 21:54:32.160,17.0,1922.0,1504.0,5695.0,7431.0
2026-01-10 21:54:32.180,57.755102040816325,1963.204081632653,1546.4897959183672,5694.0204081632655,7426.408163265306
2026-01-10 21:54:32.200,98.51020408163265,2004.408163265306,1588.9795918367347,5693.040816326531,7421.816326530612
2026-01-10 21:54:32.220,139.26530612244898,2045.6122448979593,1631.4693877551022,5692.061224489796,7417.224489795918
2026-01-10 21:54:32.240,180.0204081632653,2086.816326530612,1673.9591836734694,5691.081632653061,7412.632653061224
2026-01-10 21:54:32.260,220.77551020408163,2128.0204081632655,1716.4489795918366,5690.102040816327,7408.040816326531
2026-01-10 21:54:32.280,261.53061224489795,2169.2244897959185,1758.938775510204,5689.122448979592,7403.448979591837
2026-01-10 21:54:32.300,302.2857142857143,2210.4285714285716,1801.4285714285716,5688.142857142857,7398.857142857143
2026-01-10 21:54:32.320,343.0408163265306,2251.6326530612246,1843.9183673469388,5687.163265306122,7394.265306122449
2026-01-10 21:54:32.340,383.7959183673469,2292.8367346938776,1886.408163265306,5686.183673469388,7389.673469387755
2026-01-10 21:54:32.360,424.55102040816325,2334.0408163265306,1928.8979591836735,5685.2040816326535,7385.081632653061
2026-01-10 21:54:32.380,465.3061224489796,2375.2448979591836,1971.387755102041,5684.224489795918,7380.489795918367
2026-01-10 21:54:32.400,506.0612244897959,2416.4489795918366,2013.8775510204082,5683.244897959184,7375.897959183673
2026-01-10 21:54:32.420,546.8163265306123,2457.6530612244896,2056.3673469387754,5682.265306122449,7371.306122448979
2026-01-10 21:54:32.440,587.5714285714286,2498.857142857143,2098.857142857143,5681.285714285715,7366.714285714285
2026-01-10 21:54:32.460,628.3265306122448,2540.061224489796,2141.3469387755104,5680.306122448979,7362.122448979592
2026-01-10 21:54:32.480,669.0816326530612,2581.265306122449,2183.8367346938776,5679.326530612245,7357.530612244898
2026-01-10 21:54:32.500,709.8367346938776,2622.469387755102,2226.326530612245,5678.34693877551,7352.938775510204
2026-01-10 21:54:32.520,750.5918367346939,2663.673469387755,2268.816326530612,5677.367346938776,7348.34693877551
2026-01-10 21:54:32.540,791.3469387755101,2704.877551020408,2311.3061224489797,5676.3877551020405,7343.755102040816
2026-01-10 21:54:32.560,832.1020408163265,2746.081632653061,2353.795918367347,5675.408163265306,7339.163265306122
2026-01-10 21:54:32.580,872.8571428571429,2787.285714285714,2396.285714285714,5674.428571428572,7334.571428571428
2026-01-10 21:54:32.600,913.6122448979592,2828.4897959183672,2438.775510204082,5673.448979591837,7329.9795918367345
2026-01-10 21:54:32.620,954.3673469387754,2869.6938775510207,2481.265306122449,5672.469387755102,7325.3877551020405
2026-01-10 21:54:32.640,995.1224489795918,2910.8979591836733,2523.7551020408164,5671.489795918367,7320.7959183673465
2026-01-10 21:54:32.660,1035.8775510204082,2952.1020408163267,2566.2448979591836,5670.510204081633,7316.2040816326535
2026-01-10 21:54:32.680,1076.6326530612246,2993.3061224489797,2608.734693877551,5669.530612244898,7311.6122448979595
2026-01-10 21:54:32.700,1117.3877551020407,3034.5102040816328,2651.2244897959185,5668.551020408163,7307.0204081632655
2026-01-10 21:54:32.720,1158.142857142857,3075.714285714286,2693.714285714286,5667.571428571428,7302.428571428572
2026-01-10 21:54:32.740,1198.8979591836735,3116.918367346939,2736.204081632653,5666.591836734694,7297.836734693878
2026-01-10 21:54:32.760,1239.6530612244896,3158.1224489795923,2778.6938775510207,5665.6122448979595,7293.244897959184
2026-01-10 21:54:32.780,1280.408163265306,3199.326530612245,2821.183673469388,5664.632653061224,7288.65306122449
2026-01-10 21:54:32.800,1321.1632653061224,3240.5306122448983,2863.673469387755,5663.65306122449,7284.061224489796
2026-01-10 21:54:32.820,1361.9183673469388,3281.734693877551,2906.1632653061224,5662.673469387755,7279.469387755102
2026-01-10 21:54:32.840,1402.6734693877552,3322.9387755102043,2948.6530612244896,5661.693877551021,7274.877551020408
2026-01-10 21:54:32.860,1443.4285714285713,3364.1428571428573,2991.1428571428573,5660.714285714285,7270.285714285715
2026-01-10 21:54:32.880,1484.1836734693877,3405.3469387755104,3033.6326530612246,5659.734693877551,7265.693877551021
2026-01-10 21:54:32.900,1524.938775510204,3446.5510204081634,3076.122448979592,5658.755102040816,7261.102040816327
2026-01-10 21:54:32.920,1565.6938775510203,3487.7551020408164,3118.6122448979595,5657.775510204082,7256.510204081633
2026-01-10 21:54:32.940,1606.4489795918366,3528.95918367347,3161.1020408163267,5656.7959183673465,7251.918367346939
2026-01-10 21:54:32.960,1647.204081632653,3570.1632653061224,3203.591836734694,5655.816326530612,7247.326530612245
2026-01-10 21:54:32.980,1687.9591836734694,3611.367346938776,3246.081632653061,5654.836734693878,7242.734693877551
2026-01-10 21:54:33.000,1728.7142857142858,3652.5714285714284,3288.5714285714284,5653.857142857143,7238.142857142857
2026-01-10 21:54:33.020,1769.469387755102,3693.775510204082,3331.061224489796,5652.877551020408,7233.551020408163
2026-01-10 21:54:33.040,1810.2244897959183,3734.979591836735,3373.5510204081634,5651.897959183673,7228.959183673469
2026-01-10 21:54:33.060,1850.9795918367347,3776.183673469388,3416.0408163265306,5650.918367346939,7224.367346938776
2026-01-10 21:54:33.080,1891.7346938775509,3817.387755102041,3458.5306122448983,5649.938775510204,7219.775510204082
2026-01-10 21:54:33.100,1932.4897959183672,3858.591836734694,3501.0204081632655,5648.959183673469,7215.183673469388
2026-01-10 21:54:33.120,1973.2448979591836,3899.795918367347,3543.5102040816328,5647.9795918367345,7210.591836734694
2026-01-10 21:54:33.140,2014.0,3941.0,3586.0,5647.0,7206.0
2026-01-10 21:54:33.160,1973.0204081632653,3939.285714285714,3543.7755102040815,5648.265306122449,7210.183673469388
2026-01-10 21:54:33.180,1932.0408163265306,3937.5714285714284,3501.5510204081634,5649.530612244898,7214.367346938776
2026-01-10 21:54:33.200,1891.061224489796,3935.8571428571427,3459.326530612245,5650.7959183673465,7218.551020408163
2026-01-10 21:54:33.220,1850.0816326530612,3934.1428571428573,3417.1020408163267,5652.061224489796,7222.734693877551
2026-01-10 21:54:33.240,1809.1020408163265,3932.4285714285716,3374.877551020408,5653.326530612245,7226.918367346939
2026-01-10 21:54:33.260,1768.1224489795918,3930.714285714286,3332.6530612244896,5654.591836734694,7231.102040816327
2026-01-10 21:54:33.280,1727.142857142857,3929.0,3290.4285714285716,5655.857142857143,7235.285714285715
2026-01-10 21:54:33.300,1686.1632653061224,3927.285714285714,3248.204081632653,5657.122448979592,7239.469387755102
2026-01-10 21:54:33.320,1645.1836734693877,3925.5714285714284,3205.9795918367345,5658.3877551020405,7243.65306122449
2026-01-10 21:54:33.340,1604.204081632653,3923.8571428571427,3163.7551020408164,5659.65306122449,7247.836734693878
2026-01-10 21:54:33.360,1563.2244897959183,3922.1428571428573,3121.530612244898,5660.918367346939,7252.0204081632655
2026-01-10 21:54:33.380,1522.2448979591836,3920.4285714285716,3079.3061224489797,5662.183673469388,7256.2040816326535
2026-01-10 21:54:33.400,1481.2653061224491,3918.714285714286,3037.081632653061,5663.448979591837,7260.3877551020405
2026-01-10 21:54:33.420,1440.2857142857142,3917.0,2994.857142857143,5664.714285714285,7264.571428571428
2026-01-10 21:54:33.440,1399.3061224489797,3915.285714285714,2952.6326530612246,5665.9795918367345,7268.755102040816
2026-01-10 21:54:33.460,1358.3265306122448,3913.5714285714284,2910.408163265306,5667.244897959184,7272.938775510204
2026-01-10 21:54:33.480,1317.3469387755104,3911.8571428571427,2868.183673469388,5668.510204081633,7277.122448979592
2026-01-10 21:54:33.500,1276.3673469387754,3910.1428571428573,2825.9591836734694,5669.775510204082,7281.306122448979
2026-01-10 21:54:33.520,1235.387755102041,3908.4285714285716,2783.734693877551,5671.040816326531,7285.489795918367
2026-01-10 21:54:33.540,1194.408163265306,3906.714285714286,2741.5102040816328,5672.306122448979,7289.673469387755
2026-01-10 21:54:33.560,1153.4285714285716,3905.0,2699.285714285714,5673.571428571428,7293.857142857143
2026-01-10 21:54:33.580,1112.4489795918366,3903.285714285714,2657.0612244897957,5674.836734693878,7298.040816326531
2026-01-10 21:54:33.600,1071.4693877551022,3901.5714285714284,2614.8367346938776,5676.102040816327,7302.224489795918
2026-01-10 21:54:33.620,1030.4897959183675,3899.8571428571427,2572.6122448979595,5677.367346938776,7306.408163265306
2026-01-10 21:54:33.640,989.5102040816328,3898.1428571428573,2530.387755102041,5678.632653061224,7310.591836734694
2026-01-10 21:54:33.660,948.5306122448981,3896.4285714285716,2488.1632653061224,5679.897959183673,7314.775510204082
2026-01-10 21:54:33.680,907.5510204081634,3894.714285714286,2445.9387755102043,5681.163265306122,7318.959183673469
2026-01-10 21:54:33.700,866.5714285714287,3893.0,2403.714285714286,5682.428571428572,7323.142857142857
2026-01-10 21:54:33.720,825.591836734694,3891.285714285714,2361.4897959183672,5683.693877551021,7327.326530612245
2026-01-10 21:54:33.740,784.6122448979593,3889.5714285714284,2319.265306122449,5684.959183673469,7331.510204081633
2026-01-10 21:54:33.760,743.6326530612246,3887.8571428571427,2277.0408163265306,5686.224489795918,7335.693877551021
2026-01-10 21:54:33.780,702.6530612244899,3886.1428571428573,2234.816326530612,5687.489795918367,7339.877551020408
2026-01-10 21:54:33.800,661.6734693877552,3884.4285714285716,2192.591836734694,5688.755102040816,7344.061224489796
2026-01-10 21:54:33.820,620.6938775510205,3882.714285714286,2150.367346938776,5690.0204081632655,7348.244897959184
2026-01-10 21:54:33.840,579.7142857142858,3881.0,2108.142857142857,5691.285714285715,7352.428571428572
2026-01-10 21:54:33.860,538.7346938775511,3879.285714285714,2065.918367346939,5692.551020408163,7356.6122448979595
2026-01-10 21:54:33.880,497.7551020408164,3877.5714285714284,2023.6938775510205,5693.816326530612,7360.7959183673465
2026-01-10 21:54:33.900,456.7755102040817,3875.8571428571427,1981.4693877551022,5695.081632653061,7364.9795918367345
2026-01-10 21:54:33.920,415.795918367347,3874.1428571428573,1939.2448979591836,5696.34693877551,7369.163265306122
2026-01-10 21:54:33.940,374.8163265306123,3872.4285714285716,1897.0204081632653,5697.6122448979595,7373.34693877551
2026-01-10 21:54:33.960,333.8367346938776,3870.714285714286,1854.795918367347,5698.877551020408,7377.530612244898
2026-01-10 21:54:33.980,292.8571428571429,3869.0,1812.5714285714287,5700.142857142857,7381.714285714285
2026-01-10 21:54:34.000,251.8775510204082,3867.285714285714,1770.3469387755104,5701.408163265306,7385.897959183673
2026-01-10 21:54:34.020,210.8979591836735,3865.5714285714284,1728.1224489795918,5702.673469387755,7390.081632653061
2026-01-10 21:54:34.040,169.9183673469388,3863.8571428571427,1685.8979591836735,5703.938775510204,7394.265306122449
2026-01-10 21:54:34.060,128.9387755102041,3862.1428571428573,1643.6734693877552,5705.2040816326535,7398.448979591837
2026-01-10 21:54:34.080,87.9591836734694,3860.4285714285716,1601.4489795918369,5706.469387755102,7402.632653061224
2026-01-10 21:54:34.100,46.979591836734926,3858.714285714286,1559.2244897959185,5707.734693877551,7406.816326530612
2026-01-10 21:54:34.120,6.0,3857.0,1517.0,5709.0,7411.0
2026-01-10 21:54:34.140,6.18,3857.66,1559.18,5708.72,7413.34
2026-01-10 21:54:34.160,6.36,3858.32,1601.36,5708.44,7415.68
2026-01-10 21:54:34.180,6.54,3858.98,1643.54,5708.16,7418.02
2026-01-10 21:54:34.200,6.72,3859.64,1685.72,5707.88,7420.36
2026-01-10 21:54:34.220,6.9,3860.3,1727.9,5707.6,7422.7
2026-01-10 21:54:34.240,7.08,3860.96,1770.08,5707.32,7425.04
2026-01-10 21:54:34.260,7.26,3861.62,1812.26,5707.04,7427.38
2026-01-10 21:54:34.280,7.4399999999999995,3862.28,1854.44,5706.76,7429.72
2026-01-10 21:54:34.300,7.62,3862.94,1896.62,5706.48,7432.06
2026-01-10 21:54:34.320,7.8,3863.6,1938.8,5706.2,7434.4
2026-01-10 21:54:34.340,7.98,3864.26,1980.98,5705.92,7436.74
2026-01-10 21:54:34.360,8.16,3864.92,2023.1599999999999,5705.64,7439.08
2026-01-10 21:54:34.380,8.34,3865.58,2065.34,5705.36,7441.42
2026-01-10 21:54:34.400,8.52,3866.24,2107.52,5705.08,7443.76
2026-01-10 21:54:34.420,8.7,3866.9,2149.7,5704.8,7446.1
2026-01-10 21:54:34.440,8.879999999999999,3867.56,2191.88,5704.52,7448.44
2026-01-10 21:54:34.460,9.06,3868.22,2234.06,5704.24,7450.78
2026-01-10 21:54:34.480,9.24,3868.88,2276.24,5703.96,7453.12
2026-01-10 21:54:34.500,9.42,3869.54,2318.42,5703.68,7455.46
2026-01-10 21:54:34.520,9.6,3870.2,2360.6,5703.4,7457.8
2026-01-10 21:54:34.540,9.78,3870.86,2402.7799999999997,5703.12,7460.14
2026-01-10 21:54:34.560,9.96,3871.52,2444.96,5702.84,7462.48
2026-01-10 21:54:34.580,10.14,3872.18,2487.14,5702.56,7464.82
2026-01-10 21:54:34.600,10.32,3872.84,2529.3199999999997,5702.28,7467.16
2026-01-10 21:54:34.620,10.5,3873.5,2571.5,5702.0,7469.5
2026-01-10 21:54:34.640,10.68,3874.16,2613.6800000000003,5701.72,7471.84
2026-01-10 21:54:34.660,10.86,3874.82,2655.8599999999997,5701.44,7474.18
2026-01-10 21:54:34.680,11.04,3875.48,2698.04,5701.16,7476.52
2026-01-10 21:54:34.700,11.219999999999999,3876.14,2740.2200000000003,5700.88,7478.86
2026-01-10 21:54:34.720,11.399999999999999,3876.8,2782.4,5700.6,7481.2
2026-01-10 21:54:34.740,11.58,3877.46,2824.58,5700.32,7483.54
2026-01-10 21:54:34.760,11.76,3878.12,2866.76,5700.04,7485.88
2026-01-10 21:54:34.780,11.94,3878.78,2908.94,5699.76,7488.22
2026-01-10 21:54:34.800,12.120000000000001,3879.44,2951.12,5699.48,7490.56
2026-01-10 21:54:34.820,12.3,3880.1,2993.3,5699.2,7492.9
2026-01-10 21:54:34.840,12.48,3880.76,3035.48,5698.92,7495.24
2026-01-10 21:54:34.860,12.66,3881.42,3077.66,5698.64,7497.58
2026-01-10 21:54:34.880,12.84,3882.08,3119.84,5698.36,7499.92
2026-01-10 21:54:34.900,13.02,3882.74,3162.02,5698.08,7502.26
2026-01-10 21:54:34.920,13.2,3883.4,3204.2,5697.8,7504.6
2026-01-10 21:54:34.940,13.379999999999999,3884.06,3246.38,5697.52,7506.94
2026-01-10 21:54:34.960,13.559999999999999,3884.72,3288.56,5697.24,7509.28
2026-01-10 21:54:34.980,13.739999999999998,3885.38,3330.74,5696.96,7511.62
2026-01-10 21:54:35.000,13.92,3886.04,3372.92,5696.68,7513.96
2026-01-10 21:54:35.020,14.1,3886.7,3415.1,5696.4,7516.3
2026-01-10 21:54:35.040,14.28,3887.36,3457.2799999999997,5696.12,7518.64
2026-01-10 21:54:35.060,14.459999999999999,3888.02,3499.46,5695.84,7520.98
2026-01-10 21:54:35.080,14.64,3888.68,3541.64,5695.56,7523.32
2026-01-10 21:54:35.100,14.82,3889.34,3583.82,5695.28,7525.66
2026-01-10 21:54:35.120,15.0,3890.0,3626.0,5695.0,7528.0
2026-01-10 21:54:35.140,14.88888888888889,3891.3518518518517,3586.9074074074074,5694.851851851852,7525.074074074074
2026-01-10 21:54:35.160,14.777777777777779,3892.703703703704,3547.814814814815,5694.7037037037035,7522.148148148148
2026-01-10 21:54:35.180,14.666666666666666,3894.0555555555557,3508.722222222222,5694.555555555556,7519.222222222223
2026-01-10 21:54:35.200,14.555555555555555,3895.4074074074074,3469.6296296296296,5694.407407407408,7516.2962962962965
2026-01-10 21:54:35.220,14.444444444444445,3896.759259259259,3430.537037037037,5694.259259259259,7513.37037037037
2026-01-10 21:54:35.240,14.333333333333334,3898.1111111111113,3391.4444444444443,5694.111111111111,7510.444444444444
2026-01-10 21:54:35.260,14.222222222222221,3899.462962962963,3352.3518518518517,5693.962962962963,7507.518518518518
2026-01-10 21:54:35.280,14.11111111111111,3900.814814814815,3313.259259259259,5693.814814814815,7504.592592592592
2026-01-10 21:54:35.300,14.0,3902.1666666666665,3274.1666666666665,5693.666666666667,7501.666666666667
2026-01-10 21:54:35.320,13.88888888888889,3903.5185185185187,3235.074074074074,5693.518518518518,7498.740740740741
2026-01-10 21:54:35.340,13.777777777777779,3904.8703703703704,3195.9814814814813,5693.37037037037,7495.814814814815
2026-01-10 21:54:35.360,13.666666666666666,3906.222222222222,3156.8888888888887,5693.222222222223,7492.888888888889
2026-01-10 21:54:35.380,13.555555555555555,3907.574074074074,3117.796296296296,5693.074074074074,7489.962962962963
2026-01-10 21:54:35.400,13.444444444444445,3908.925925925926,3078.7037037037035,5692.925925925926,7487.037037037037
2026-01-10 21:54:35.420,13.333333333333334,3910.277777777778,3039.6111111111113,5692.777777777777,7484.111111111111
2026-01-10 21:54:35.440,13.222222222222221,3911.6296296296296,3000.5185185185182,5692.62962962963,7481.185185185185
2026-01-10 21:54:35.460,13.11111111111111,3912.9814814814813,2961.425925925926,5692.481481481482,7478.259259259259
2026-01-10 21:54:35.480,13.0,3914.3333333333335,2922.333333333333,5692.333333333333,7475.333333333333
2026-01-10 21:54:35.500,12.88888888888889,3915.685185185185,2883.240740740741,5692.185185185185,7472.407407407408
2026-01-10 21:54:35.520,12.777777777777779,3917.037037037037,2844.148148148148,5692.037037037037,7469.481481481482
2026-01-10 21:54:35.540,12.666666666666668,3918.3888888888887,2805.0555555555557,5691.888888888889,7466.555555555556
2026-01-10 21:54:35.560,12.555555555555555,3919.740740740741,2765.962962962963,5691.740740740741,7463.62962962963
2026-01-10 21:54:35.580,12.444444444444445,3921.0925925925926,2726.8703703703704,5691.592592592592,7460.7037037037035
2026-01-10 21:54:35.600,12.333333333333334,3922.4444444444443,2687.777777777778,5691.444444444444,7457.777777777777
2026-01-10 21:54:35.620,12.222222222222221,3923.796296296296,2648.685185185185,5691.2962962962965,7454.851851851852
2026-01-10 21:54:35.640,12.11111111111111,3925.1481481481483,2609.5925925925926,5691.148148148148,7451.925925925926
2026-01-10 21:54:35.660,12.0,3926.5,2570.5,5691.0,7449.0
2026-01-10 21:54:35.680,11.88888888888889,3927.8518518518517,2531.4074074074074,5690.851851851852,7446.074074074074
2026-01-10 21:54:35.700,11.777777777777779,3929.203703703704,2492.314814814815,5690.7037037037035,7443.148148148148
2026-01-10 21:54:35.720,11.666666666666668,3930.5555555555557,2453.222222222222,5690.555555555556,7440.222222222223
2026-01-10 21:54:35.740,11.555555555555555,3931.9074074074074,2414.1296296296296,5690.407407407408,7437.2962962962965
2026-01-10 21:54:35.760,11.444444444444445,3933.259259259259,2375.037037037037,5690.259259259259,7434.37037037037
2026-01-10 21:54:35.780,11.333333333333334,3934.6111111111113,2335.9444444444443,5690.111111111111,7431.444444444444
2026-01-10 21:54:35.800,11.222222222222221,3935.962962962963,2296.8518518518517,5689.962962962963,7428.518518518518
2026-01-10 21:54:35.820,11.11111111111111,3937.314814814815,2257.759259259259,5689.814814814815,7425.592592592592
2026-01-10 21:54:35.840,11.0,3938.6666666666665,2218.6666666666665,5689.666666666667,7422.666666666667
2026-01-10 21:54:35.860,10.88888888888889,3940.0185185185187,2179.574074074074,5689.518518518518,7419.740740740741
2026-01-10 21:54:35.880,10.777777777777779,3941.3703703703704,2140.4814814814813,5689.37037037037,7416.814814814815
2026-01-10 21:54:35.900,10.666666666666668,3942.722222222222,2101.3888888888887,5689.222222222223,7413.888888888889
2026-01-10 21:54:35.920,10.555555555555555,3944.074074074074,2062.296296296296,5689.074074074074,7410.962962962963
2026-01-10 21:54:35.940,10.444444444444445,3945.425925925926,2023.2037037037037,5688.925925925926,7408.037037037037
2026-01-10 21:54:35.960,10.333333333333334,3946.777777777778,1984.111111111111,5688.777777777777,7405.111111111111
2026-01-10 21:54:35.980,10.222222222222221,3948.1296296296296,1945.0185185185185,5688.62962962963,7402.185185185185
2026-01-10 21:54:36.000,10.11111111111111,3949.4814814814813,1905.9259259259259,5688.481481481482,7399.259259259259
2026-01-10 21:54:36.020,10.0,3950.8333333333335,1866.8333333333333,5688.333333333333,7396.333333333333
2026-01-10 21:54:36.040,9.88888888888889,3952.185185185185,1827.7407407407406,5688.185185185185,7393.407407407407
2026-01-10 21:54:36.060,9.777777777777779,3953.537037037037,1788.648148148148,5688.037037037037,7390.481481481482
2026-01-10 21:54:36.080,9.666666666666668,3954.8888888888887,1749.5555555555554,5687.888888888889,7387.555555555556
2026-01-10 21:54:36.100,9.555555555555557,3956.240740740741,1710.4629629629628,5687.740740740741,7384.62962962963
2026-01-10 21:54:36.120,9.444444444444445,3957.5925925925926,1671.3703703703702,5687.592592592592,7381.7037037037035
2026-01-10 21:54:36.140,9.333333333333334,3958.9444444444443,1632.2777777777776,5687.444444444444,7378.777777777777
2026-01-10 21:54:36.160,9.222222222222221,3960.296296296296,1593.185185185185,5687.2962962962965,7375.851851851852
2026-01-10 21:54:36.180,9.11111111111111,3961.6481481481483,1554.0925925925926,5687.148148148148,7372.925925925926
2026-01-10 21:54:36.200,9.0,3963.0,1515.0,5687.0,7370.0
2026-01-10 21:54:36.220,8.936170212765957,3963.0851063829787,1559.5531914893618,5687.787234042553,7373.617021276596
2026-01-10 21:54:36.240,8.872340425531915,3963.1702127659573,1604.1063829787233,5688.574468085107,7377.234042553191
2026-01-10 21:54:36.260,8.808510638297872,3963.255319148936,1648.659574468085,5689.36170212766,7380.851063829788
2026-01-10 21:54:36.280,8.74468085106383,3963.340425531915,1693.212765957447,5690.148936170212,7384.468085106383
2026-01-10 21:54:36.300,8.680851063829786,3963.425531914894,1737.7659574468084,5690.936170212766,7388.085106382979
2026-01-10 21:54:36.320,8.617021276595745,3963.5106382978724,1782.3191489361702,5691.723404255319,7391.702127659574
2026-01-10 21:54:36.340,8.553191489361701,3963.595744680851,1826.872340425532,5692.510638297872,7395.31914893617
2026-01-10 21:54:36.360,8.48936170212766,3963.68085106383,1871.4255319148936,5693.297872340426,7398.936170212766
2026-01-10 21:54:36.380,8.425531914893616,3963.7659574468084,1915.9787234042553,5694.085106382979,7402.553191489362
2026-01-10 21:54:36.400,8.361702127659575,3963.851063829787,1960.5319148936169,5694.872340425532,7406.170212765957
2026-01-10 21:54:36.420,8.297872340425531,3963.936170212766,2005.0851063829787,5695.659574468085,7409.787234042553
2026-01-10 21:54:36.440,8.23404255319149,3964.021276595745,2049.6382978723404,5696.446808510638,7413.404255319149
2026-01-10 21:54:36.460,8.170212765957446,3964.1063829787236,2094.191489361702,5697.234042553191,7417.021276595745
2026-01-10 21:54:36.480,8.106382978723405,3964.191489361702,2138.744680851064,5698.021276595745,7420.63829787234
2026-01-10 21:54:36.500,8.042553191489361,3964.276595744681,2183.297872340426,5698.808510638298,7424.255319148936
2026-01-10 21:54:36.520,7.9787234042553195,3964.3617021276596,2227.851063829787,5699.595744680851,7427.872340425532
2026-01-10 21:54:36.540,7.914893617021277,3964.446808510638,2272.404255319149,5700.382978723404,7431.489361702128
2026-01-10 21:54:36.560,7.851063829787234,3964.531914893617,2316.9574468085107,5701.170212765957,7435.106382978724
2026-01-10 21:54:36.580,7.787234042553192,3964.6170212765956,2361.5106382978724,5701.95744680851,7438.723404255319
2026-01-10 21:54:36.600,7.723404255319149,3964.7021276595747,2406.0638297872338,5702.744680851064,7442.340425531915
2026-01-10 21:54:36.620,7.659574468085107,3964.7872340425533,2450.6170212765956,5703.531914893617,7445.95744680851
2026-01-10 21:54:36.640,7.595744680851064,3964.872340425532,2495.1702127659573,5704.31914893617,7449.574468085107
2026-01-10 21:54:36.660,7.531914893617022,3964.9574468085107,2539.723404255319,5705.106382978724,7453.191489361702
2026-01-10 21:54:36.680,7.468085106382979,3965.0425531914893,2584.276595744681,5705.893617021276,7456.808510638298
2026-01-10 21:54:36.700,7.404255319148936,3965.127659574468,2628.8297872340427,5706.68085106383,7460.425531914893
2026-01-10 21:54:36.720,7.340425531914894,3965.2127659574467,2673.3829787234044,5707.468085106383,7464.04255319149
2026-01-10 21:54:36.740,7.276595744680851,3965.2978723404253,2717.9361702127662,5708.255319148936,7467.659574468085
2026-01-10 21:54:36.760,7.212765957446809,3965.3829787234044,2762.4893617021276,5709.04255319149,7471.276595744681
2026-01-10 21:54:36.780,7.148936170212766,3965.468085106383,2807.0425531914893,5709.829787234043,7474.893617021276
2026-01-10 21:54:36.800,7.085106382978724,3965.553191489362,2851.595744680851,5710.617021276596,7478.510638297872
2026-01-10 21:54:36.820,7.0212765957446805,3965.6382978723404,2896.1489361702124,5711.404255319149,7482.127659574468
2026-01-10 21:54:36.840,6.957446808510639,3965.723404255319,2940.702127659574,5712.191489361702,7485.744680851064
2026-01-10 21:54:36.860,6.8936170212765955,3965.808510638298,2985.255319148936,5712.978723404255,7489.36170212766
2026-01-10 21:54:36.880,6.829787234042554,3965.8936170212764,3029.808510638298,5713.765957446809,7492.978723404255
2026-01-10 21:54:36.900,6.76595744680851,3965.978723404255,3074.3617021276596,5714.553191489362,7496.595744680851
2026-01-10 21:54:36.920,6.702127659574469,3966.063829787234,3118.9148936170213,5715.340425531915,7500.212765957447
2026-01-10 21:54:36.940,6.638297872340425,3966.148936170213,3163.468085106383,5716.127659574468,7503.829787234043
2026-01-10 21:54:36.960,6.574468085106384,3966.2340425531916,3208.021276595745,5716.914893617021,7507.446808510638
2026-01-10 21:54:36.980,6.51063829787234,3966.31914893617,3252.5744680851067,5717.702127659574,7511.063829787234
2026-01-10 21:54:37.000,6.446808510638299,3966.404255319149,3297.127659574468,5718.489361702128,7514.680851063829
2026-01-10 21:54:37.020,6.382978723404255,3966.4893617021276,3341.68085106383,5719.276595744681,7518.297872340426
2026-01-10 21:54:37.040,6.319148936170214,3966.574468085106,3386.2340425531916,5720.063829787234,7521.914893617021
2026-01-10 21:54:37.060,6.25531914893617,3966.659574468085,3430.787234042553,5720.851063829788,7525.531914893617
2026-01-10 21:54:37.080,6.1914893617021285,3966.744680851064,3475.3404255319147,5721.63829787234,7529.148936170212
2026-01-10 21:54:37.100,6.127659574468085,3966.8297872340427,3519.8936170212764,5722.425531914893,7532.765957446809
2026-01-10 21:54:37.120,6.063829787234043,3966.9148936170213,3564.446808510638,5723.212765957447,7536.382978723404
2026-01-10 21:54:37.140,6.0,3967.0,3609.0,5724.0,7540.0
2026-01-10 21:54:37.160,39.13333333333333,3966.7833333333333,3572.766666666667,5723.416666666667,7540.37037037037
2026-01-10 21:54:37.180,72.26666666666667,3966.5666666666666,3536.5333333333333,5722.833333333333,7540.740740740741
2026-01-10 21:54:37.200,105.4,3966.35,3500.3,5722.25,7541.111111111111
2026-01-10 21:54:37.220,138.53333333333333,3966.133333333333,3464.0666666666666,5721.666666666667,7541.481481481482
2026-01-10 21:54:37.240,171.66666666666666,3965.9166666666665,3427.8333333333335,5721.083333333333,7541.851851851852
2026-01-10 21:54:37.260,204.8,3965.7,3391.6,5720.5,7542.222222222223
2026-01-10 21:54:37.280,237.93333333333334,3965.483333333333,3355.366666666667,5719.916666666667,7542.592592592592
2026-01-10 21:54:37.300,271.06666666666666,3965.266666666667,3319.133333333333,5719.333333333333,7542.962962962963
2026-01-10 21:54:37.320,304.2,3965.05,3282.9,5718.75,7543.333333333333
2026-01-10 21:54:37.340,337.3333333333333,3964.8333333333335,3246.6666666666665,5718.166666666667,7543.7037037037035
2026-01-10 21:54:37.360,370.46666666666664,3964.616666666667,3210.4333333333334,5717.583333333333,7544.074074074074
2026-01-10 21:54:37.380,403.6,3964.4,3174.2,5717.0,7544.444444444444
2026-01-10 21:54:37.400,436.73333333333335,3964.1833333333334,3137.9666666666667,5716.416666666667,7544.814814814815
2026-01-10 21:54:37.420,469.8666666666667,3963.9666666666667,3101.7333333333336,5715.833333333333,7545.185185185185
2026-01-10 21:54:37.440,503.0,3963.75,3065.5,5715.25,7545.555555555556
2026-01-10 21:54:37.460,536.1333333333333,3963.5333333333333,3029.2666666666664,5714.666666666667,7545.925925925926
2026-01-10 21:54:37.480,569.2666666666667,3963.3166666666666,2993.0333333333333,5714.083333333333,7546.2962962962965
2026-01-10 21:54:37.500,602.4,3963.1,2956.8,5713.5,7546.666666666667
2026-01-10 21:54:37.520,635.5333333333333,3962.883333333333,2920.5666666666666,5712.916666666667,7547.037037037037
2026-01-10 21:54:37.540,668.6666666666666,3962.6666666666665,2884.333333333333,5712.333333333333,7547.407407407408
2026-01-10 21:54:37.560,701.8,3962.45,2848.1,5711.75,7547.777777777777
2026-01-10 21:54:37.580,734.9333333333333,3962.233333333333,2811.866666666667,5711.166666666667,7548.148148148148
2026-01-10 21:54:37.600,768.0666666666666,3962.016666666667,2775.633333333333,5710.583333333333,7548.518518518518
2026-01-10 21:54:37.620,801.2,3961.8,2739.4,5710.0,7548.888888888889
2026-01-10 21:54:37.640,834.3333333333334,3961.5833333333335,2703.1666666666665,5709.416666666667,7549.259259259259
2026-01-10 21:54:37.660,867.4666666666667,3961.366666666667,2666.9333333333334,5708.833333333333,7549.62962962963
2026-01-10 21:54:37.680,900.6,3961.15,2630.7,5708.25,7550.0
2026-01-10 21:54:37.700,933.7333333333333,3960.9333333333334,2594.4666666666667,5707.666666666667,7550.37037037037
2026-01-10 21:54:37.720,966.8666666666667,3960.7166666666667,2558.2333333333336,5707.083333333333,7550.740740740741
2026-01-10 21:54:37.740,1000.0,3960.5,2522.0,5706.5,7551.111111111111
2026-01-10 21:54:37.760,1033.1333333333332,3960.2833333333333,2485.7666666666664,5705.916666666667,7551.481481481482
2026-01-10 21:54:37.780,1066.2666666666667,3960.0666666666666,2449.5333333333333,5705.333333333333,7551.851851851852
2026-01-10 21:54:37.800,1099.4,3959.85,2413.3,5704.75,7552.222222222223
2026-01-10 21:54:37.820,1132.5333333333333,3959.633333333333,2377.0666666666666,5704.166666666667,7552.592592592592
2026-01-10 21:54:37.840,1165.6666666666667,3959.4166666666665,2340.833333333333,5703.583333333333,7552.962962962963
2026-01-10 21:54:37.860,1198.8,3959.2,2304.6,5703.0,7553.333333333333
2026-01-10 21:54:37.880,1231.9333333333334,3958.983333333333,2268.366666666667,5702.416666666667,7553.7037037037035
2026-01-10 21:54:37.900,1265.0666666666666,3958.766666666667,2232.133333333333,5701.833333333333,7554.074074074074
2026-01-10 21:54:37.920,1298.2,3958.55,2195.8999999999996,5701.25,7554.444444444444
2026-01-10 21:54:37.940,1331.3333333333333,3958.3333333333335,2159.6666666666665,5700.666666666667,7554.814814814815
2026-01-10 21:54:37.960,1364.4666666666667,3958.116666666667,2123.4333333333334,5700.083333333333,7555.185185185185
2026-01-10 21:54:37.980,1397.6,3957.9,2087.2,5699.5,7555.555555555556
2026-01-10 21:54:38.000,1430.7333333333333,3957.6833333333334,2050.9666666666667,5698.916666666667,7555.925925925926
2026-01-10 21:54:38.020,1463.8666666666666,3957.4666666666667,2014.7333333333333,5698.333333333333,7556.2962962962965
2026-01-10 21:54:38.040,1497.0,3957.25,1978.5,5697.75,7556.666666666667
2026-01-10 21:54:38.060,1530.1333333333332,3957.0333333333333,1942.2666666666667,5697.166666666667,7557.037037037037
2026-01-10 21:54:38.080,1563.2666666666667,3956.8166666666666,1906.0333333333333,5696.583333333333,7557.407407407408
2026-01-10 21:54:38.100,1596.4,3956.6,1869.8,5696.0,7557.777777777777
2026-01-10 21:54:38.120,1629.5333333333333,3956.383333333333,1833.5666666666666,5695.416666666667,7558.148148148148
2026-01-10 21:54:38.140,1662.6666666666667,3956.1666666666665,1797.3333333333333,5694.833333333333,7558.518518518518
2026-01-10 21:54:38.160,1695.8,3955.95,1761.1,5694.25,7558.888888888889
2026-01-10 21:54:38.180,1728.9333333333334,3955.733333333333,1724.8666666666666,5693.666666666667,7559.259259259259
2026-01-10 21:54:38.200,1762.0666666666666,3955.516666666667,1688.6333333333332,5693.083333333333,7559.62962962963
2026-01-10 21:54:38.220,1795.2,3955.3,1652.3999999999999,5692.5,7560.0
2026-01-10 21:54:38.240,1828.3333333333333,3955.0833333333335,1616.1666666666665,5691.916666666667,7558.666666666667
2026-01-10 21:54:38.260,1861.4666666666667,3954.866666666667,1579.9333333333334,5691.333333333333,7557.333333333333
2026-01-10 21:54:38.280,1894.6,3954.65,1543.6999999999998,5690.75,7556.0
2026-01-10 21:54:38.300,1927.7333333333333,3954.4333333333334,1507.4666666666667,5690.166666666667,7554.666666666667
2026-01-10 21:54:38.320,1960.8666666666666,3954.2166666666667,1471.2333333333331,5689.583333333333,7553.333333333333
2026-01-10 21:54:38.340,1994.0,3954.0,1435.0,5689.0,7552.0
2026-01-10 21:54:38.360,1994.3846153846155,3951.7948717948716,1437.051282051282,5689.923076923077,7550.666666666667
2026-01-10 21:54:38.380,1994.7692307692307,3949.5897435897436,1439.1025641025642,5690.846153846154,7549.333333333333
2026-01-10 21:54:38.400,1995.1538461538462,3947.3846153846152,1441.1538461538462,5691.7692307692305,7548.0
2026-01-10 21:54:38.420,1995.5384615384614,3945.1794871794873,1443.2051282051282,5692.692307692308,7546.666666666667
2026-01-10 21:54:38.440,1995.923076923077,3942.974358974359,1445.2564102564102,5693.615384615385,7545.333333333333
2026-01-10 21:54:38.460,1996.3076923076924,3940.769230769231,1447.3076923076924,5694.538461538462,7544.0
2026-01-10 21:54:38.480,1996.6923076923076,3938.5641025641025,1449.3589743589744,5695.461538461538,7542.666666666667
2026-01-10 21:54:38.500,1997.076923076923,3936.358974358974,1451.4102564102564,5696.384615384615,7541.333333333333
2026-01-10 21:54:38.520,1997.4615384615386,3934.153846153846,1453.4615384615386,5697.307692307692,7540.0
2026-01-10 21:54:38.540,1997.8461538461538,3931.948717948718,1455.5128205128206,5698.2307692307695,7538.666666666667
2026-01-10 21:54:38.560,1998.2307692307693,3929.74358974359,1457.5641025641025,5699.153846153846,7537.333333333333
2026-01-10 21:54:38.580,1998.6153846153845,3927.5384615384614,1459.6153846153845,5700.076923076923,7536.0
2026-01-10 21:54:38.600,1999.0,3925.3333333333335,1461.6666666666667,5701.0,7534.666666666667
2026-01-10 21:54:38.620,1999.3846153846155,3923.128205128205,1463.7179487179487,5701.923076923077,7533.333333333333
2026-01-10 21:54:38.640,1999.7692307692307,3920.923076923077,1465.7692307692307,5702.846153846154,7532.0
2026-01-10 21:54:38.660,2000.1538461538462,3918.7179487179487,1467.8205128205127,5703.7692307692305,7530.666666666667
2026-01-10 21:54:38.680,2000.5384615384614,3916.5128205128203,1469.871794871795,5704.692307692308,7529.333333333333
2026-01-10 21:54:38.700,2000.923076923077,3914.3076923076924,1471.923076923077,5705.615384615385,7528.0
2026-01-10 21:54:38.720,2001.3076923076924,3912.102564102564,1473.974358974359,5706.538461538462,7526.666666666667
2026-01-10 21:54:38.740,2001.6923076923076,3909.897435897436,1476.025641025641,5707.461538461538,7525.333333333333
2026-01-10 21:54:38.760,2002.076923076923,3907.6923076923076,1478.076923076923,5708.384615384615,7524.0
2026-01-10 21:54:38.780,2002.4615384615386,3905.4871794871797,1480.128205128205,5709.307692307692,7522.666666666667
2026-01-10 21:54:38.800,2002.8461538461538,3903.2820512820513,1482.179487179487,5710.2307692307695,7521.333333333333
2026-01-10 21:54:38.820,2003.2307692307693,3901.076923076923,1484.2307692307693,5711.153846153846,7520.0
2026-01-10 21:54:38.840,2003.6153846153845,3898.871794871795,1486.2820512820513,5712.076923076923,7518.666666666667
2026-01-10 21:54:38.860,2004.0,3896.6666666666665,1488.3333333333333,5713.0,7517.333333333333
2026-01-10 21:54:38.880,2004.3846153846155,3894.4615384615386,1490.3846153846155,5713.923076923077,7516.0
2026-01-10 21:54:38.900,2004.7692307692307,3892.25641025641,1492.4358974358975,5714.846153846154,7514.666666666667
2026-01-10 21:54:38.920,2005.1538461538462,3890.051282051282,1494.4871794871794,5715.7692307692305,7513.333333333333
2026-01-10 21:54:38.940,2005.5384615384614,3887.846153846154,1496.5384615384614,5716.692307692308,7512.0
2026-01-10 21:54:38.960,2005.923076923077,3885.6410256410254,1498.5897435897436,5717.615384615385,7510.666666666667
2026-01-10 21:54:38.980,2006.3076923076924,3883.4358974358975,1500.6410256410256,5718.538461538462,7509.333333333333
2026-01-10 21:54:39.000,2006.6923076923076,3881.230769230769,1502.6923076923076,5719.461538461538,7508.0
2026-01-10 21:54:39.020,2007.076923076923,3879.025641025641,1504.7435897435898,5720.384615384615,7506.666666666667
2026-01-10 21:54:39.040,2007.4615384615386,3876.8205128205127,1506.7948717948718,5721.307692307692,7505.333333333333
2026-01-10 21:54:39.060,2007.8461538461538,3874.6153846153848,1508.8461538461538,5722.2307692307695,7504.0
2026-01-10 21:54:39.080,2008.2307692307693,3872.4102564102564,1510.8974358974358,5723.153846153846,7502.666666666667
2026-01-10 21:54:39.100,2008.6153846153845,3870.2051282051284,1512.948717948718,5724.076923076923,7501.333333333333
2026-01-10 21:54:39.120,2009.0,3868.0,1515.0,5725.0,7500.0
2026-01-10 21:54:39.140,1970.0,3831.5686274509803,1515.1176470588234,5724.764705882353,7501.156862745098
2026-01-10 21:54:39.160,1931.0,3795.1372549019607,1515.235294117647,5724.529411764706,7502.313725490196
2026-01-10 21:54:39.180,1892.0,3758.705882352941,1515.3529411764705,5724.294117647059,7503.470588235294
2026-01-10 21:54:39.200,1853.0,3722.274509803922,1515.4705882352941,5724.058823529412,7504.6274509803925
2026-01-10 21:54:39.220,1814.0,3685.843137254902,1515.5882352941176,5723.823529411765,7505.78431372549
2026-01-10 21:54:39.240,1775.0,3649.4117647058824,1515.7058823529412,5723.588235294118,7506.941176470588
2026-01-10 21:54:39.260,1736.0,3612.9803921568628,1515.8235294117646,5723.35294117647,7508.098039215686
2026-01-10 21:54:39.280,1697.0,3576.549019607843,1515.9411764705883,5723.117647058823,7509.254901960784
2026-01-10 21:54:39.300,1658.0,3540.1176470588234,1516.0588235294117,5722.882352941177,7510.411764705882
2026-01-10 21:54:39.320,1619.0,3503.6862745098038,1516.1764705882354,5722.64705882353,7511.568627450981
2026-01-10 21:54:39.340,1580.0,3467.254901960784,1516.2941176470588,5722.411764705882,7512.725490196079
2026-01-10 21:54:39.360,1541.0,3430.823529411765,1516.4117647058824,5722.176470588235,7513.882352941177
2026-01-10 21:54:39.380,1502.0,3394.392156862745,1516.5294117647059,5721.941176470588,7515.0392156862745
2026-01-10 21:54:39.400,1463.0,3357.9607843137255,1516.6470588235295,5721.705882352941,7516.196078431372
2026-01-10 21:54:39.420,1424.0,3321.529411764706,1516.764705882353,5721.470588235294,7517.35294117647
2026-01-10 21:54:39.440,1385.0,3285.098039215686,1516.8823529411766,5721.235294117647,7518.509803921569
2026-01-10 21:54:39.460,1346.0,3248.666666666667,1517.0,5721.0,7519.666666666667
2026-01-10 21:54:39.480,1307.0,3212.235294117647,1517.1176470588234,5720.764705882353,7520.823529411765
2026-01-10 21:54:39.500,1268.0,3175.8039215686276,1517.235294117647,5720.529411764706,7521.980392156863
2026-01-10 21:54:39.520,1229.0,3139.372549019608,1517.3529411764705,5720.294117647059,7523.137254901961
2026-01-10 21:54:39.540,1190.0,3102.9411764705883,1517.4705882352941,5720.058823529412,7524.294117647059
2026-01-10 21:54:39.560,1151.0,3066.5098039215686,1517.5882352941176,5719.823529411765,7525.450980392156
2026-01-10 21:54:39.580,1112.0,3030.078431372549,1517.7058823529412,5719.588235294118,7526.607843137255
2026-01-10 21:54:39.600,1073.0,2993.6470588235297,1517.8235294117646,5719.35294117647,7527.764705882353
2026-01-10 21:54:39.620,1034.0,2957.2156862745096,1517.9411764705883,5719.117647058823,7528.921568627451
2026-01-10 21:54:39.640,995.0,2920.7843137254904,1518.0588235294117,5718.882352941177,7530.078431372549
2026-01-10 21:54:39.660,956.0,2884.3529411764707,1518.1764705882354,5718.64705882353,7531.235294117647
2026-01-10 21:54:39.680,917.0,2847.921568627451,1518.2941176470588,5718.411764705882,7532.392156862745
2026-01-10 21:54:39.700,878.0,2811.4901960784314,1518.4117647058824,5718.176470588235,7533.549019607844
2026-01-10 21:54:39.720,839.0,2775.0588235294117,1518.5294117647059,5717.941176470588,7534.705882352941
2026-01-10 21:54:39.740,800.0,2738.6274509803925,1518.6470588235295,5717.705882352941,7535.862745098039
2026-01-10 21:54:39.760,761.0,2702.1960784313724,1518.764705882353,5717.470588235294,7537.019607843137
2026-01-10 21:54:39.780,722.0,2665.764705882353,1518.8823529411766,5717.235294117647,7538.176470588235
2026-01-10 21:54:39.800,683.0,2629.3333333333335,1519.0,5717.0,7539.333333333333
2026-01-10 21:54:39.820,644.0,2592.901960784314,1519.1176470588234,5716.764705882353,7540.490196078431
2026-01-10 21:54:39.840,605.0,2556.470588235294,1519.235294117647,5716.529411764706,7541.64705882353
2026-01-10 21:54:39.860,566.0,2520.0392156862745,1519.3529411764705,5716.294117647059,7542.803921568628
2026-01-10 21:54:39.880,527.0,2483.6078431372553,1519.4705882352941,5716.058823529412,7543.9607843137255
2026-01-10 21:54:39.900,488.0,2447.176470588235,1519.5882352941176,5715.823529411765,7545.117647058823
2026-01-10 21:54:39.920,449.0,2410.745098039216,1519.7058823529412,5715.588235294118,7546.274509803921
2026-01-10 21:54:39.940,410.0,2374.3137254901962,1519.8235294117646,5715.35294117647,7547.431372549019
2026-01-10 21:54:39.960,371.0,2337.8823529411766,1519.9411764705883,5715.117647058823,7548.588235294118
2026-01-10 21:54:39.980,332.0,2301.450980392157,1520.0588235294117,5714.882352941177,7549.745098039216
2026-01-10 21:54:40.000,293.0,2265.0196078431372,1520.1764705882354,5714.64705882353,7550.901960784314
2026-01-10 21:54:40.020,254.0,2228.588235294118,1520.2941176470588,5714.411764705882,7552.058823529412
2026-01-10 21:54:40.040,215.0,2192.156862745098,1520.4117647058824,5714.176470588235,7553.21568627451
2026-01-10 21:54:40.060,176.0,2155.7254901960787,1520.5294117647059,5713.941176470588,7554.3725490196075
2026-01-10 21:54:40.080,137.0,2119.294117647059,1520.6470588235295,5713.705882352941,7555.529411764706
2026-01-10 21:54:40.100,98.0,2082.8627450980393,1520.764705882353,5713.470588235294,7556.686274509804
2026-01-10 21:54:40.120,59.0,2046.4313725490197,1520.8823529411766,5713.235294117647,7557.843137254902
2026-01-10 21:54:40.140,20.0,2010.0,1521.0,5713.0,7559.0
2026-01-10 21:54:40.160,20.321428571428573,2044.6785714285713,1558.232142857143,5712.94,7558.94
2026-01-10 21:54:40.180,20.642857142857142,2079.3571428571427,1595.4642857142858,5712.88,7558.88
2026-01-10 21:54:40.200,20.964285714285715,2114.035714285714,1632.6964285714284,5712.82,7558.82
2026-01-10 21:54:40.220,21.285714285714285,2148.714285714286,1669.9285714285713,5712.76,7558.76
2026-01-10 21:54:40.240,21.607142857142858,2183.3928571428573,1707.1607142857142,5712.7,7558.7
2026-01-10 21:54:40.260,21.92857142857143,2218.0714285714284,1744.392857142857,5712.64,7558.64
2026-01-10 21:54:40.280,22.25,2252.75,1781.625,5712.58,7558.58
2026-01-10 21:54:40.300,22.571428571428573,2287.4285714285716,1818.857142857143,5712.52,7558.52
2026-01-10 21:54:40.320,22.892857142857142,2322.107142857143,1856.0892857142858,5712.46,7558.46
2026-01-10 21:54:40.340,23.214285714285715,2356.785714285714,1893.3214285714284,5712.4,7558.4
2026-01-10 21:54:40.360,23.535714285714285,2391.464285714286,1930.5535714285713,5712.34,7558.34
2026-01-10 21:54:40.380,23.857142857142858,2426.1428571428573,1967.7857142857142,5712.28,7558.28
2026-01-10 21:54:40.400,24.17857142857143,2460.8214285714284,2005.017857142857,5712.22,7558.22
2026-01-10 21:54:40.420,24.5,2495.5,2042.25,5712.16,7558.16
2026-01-10 21:54:40.440,24.821428571428573,2530.1785714285716,2079.4821428571427,5712.1,7558.1
2026-01-10 21:54:40.460,25.142857142857142,2564.857142857143,2116.714285714286,5712.04,7558.04
2026-01-10 21:54:40.480,25.464285714285715,2599.535714285714,2153.9464285714284,5711.98,7557.98
2026-01-10 21:54:40.500,25.785714285714285,2634.214285714286,2191.1785714285716,5711.92,7557.92
2026-01-10 21:54:40.520,26.107142857142858,2668.8928571428573,2228.410714285714,5711.86,7557.86
2026-01-10 21:54:40.540,26.42857142857143,2703.5714285714284,2265.642857142857,5711.8,7557.8
2026-01-10 21:54:40.560,26.75,2738.25,2302.875,5711.74,7557.74
2026-01-10 21:54:40.580,27.071428571428573,2772.9285714285716,2340.1071428571427,5711.68,7557.68
2026-01-10 21:54:40.600,27.392857142857142,2807.607142857143,2377.339285714286,5711.62,7557.62
2026-01-10 21:54:40.620,27.714285714285715,2842.285714285714,2414.5714285714284,5711.56,7557.56
2026-01-10 21:54:40.640,28.035714285714285,2876.964285714286,2451.8035714285716,5711.5,7557.5
2026-01-10 21:54:40.660,28.357142857142858,2911.6428571428573,2489.035714285714,5711.44,7557.44
2026-01-10 21:54:40.680,28.67857142857143,2946.3214285714284,2526.267857142857,5711.38,7557.38
2026-01-10 21:54:40.700,29.0,2981.0,2563.5,5711.32,7557.32
2026-01-10 21:54:40.720,29.321428571428573,3015.6785714285716,2600.7321428571427,5711.26,7557.26
2026-01-10 21:54:40.740,29.642857142857146,3050.357142857143,2637.9642857142853,5711.2,7557.2
2026-01-10 21:54:40.760,29.964285714285715,3085.0357142857147,2675.1964285714284,5711.14,7557.14
2026-01-10 21:54:40.780,30.285714285714285,3119.714285714286,2712.4285714285716,5711.08,7557.08
2026-01-10 21:54:40.800,30.607142857142858,3154.392857142857,2749.660714285714,5711.02,7557.02
2026-01-10 21:54:40.820,30.92857142857143,3189.0714285714284,2786.892857142857,5710.96,7556.96
2026-01-10 21:54:40.840,31.25,3223.75,2824.125,5710.9,7556.9
2026-01-10 21:54:40.860,31.571428571428573,3258.4285714285716,2861.3571428571427,5710.84,7556.84
2026-01-10 21:54:40.880,31.892857142857146,3293.107142857143,2898.5892857142853,5710.78,7556.78
2026-01-10 21:54:40.900,32.214285714285715,3327.7857142857147,2935.8214285714284,5710.72,7556.72
2026-01-10 21:54:40.920,32.535714285714285,3362.464285714286,2973.0535714285716,5710.66,7556.66
2026-01-10 21:54:40.940,32.85714285714286,3397.1428571428573,3010.285714285714,5710.6,7556.6
2026-01-10 21:54:40.960,33.17857142857143,3431.8214285714284,3047.517857142857,5710.54,7556.54
2026-01-10 21:54:40.980,33.5,3466.5,3084.75,5710.48,7556.48
2026-01-10 21:54:41.000,33.82142857142857,3501.1785714285716,3121.9821428571427,5710.42,7556.42
2026-01-10 21:54:41.020,34.142857142857146,3535.857142857143,3159.2142857142853,5710.36,7556.36
2026-01-10 21:54:41.040,34.464285714285715,3570.5357142857147,3196.4464285714284,5710.3,7556.3
2026-01-10 21:54:41.060,34.785714285714285,3605.214285714286,3233.6785714285716,5710.24,7556.24
2026-01-10 21:54:41.080,35.10714285714286,3639.8928571428573,3270.910714285714,5710.18,7556.18
2026-01-10 21:54:41.100,35.42857142857143,3674.5714285714284,3308.142857142857,5710.12,7556.12
2026-01-10 21:54:41.120,35.75,3709.25,3345.375,5710.06,7556.06
2026-01-10 21:54:41.140,36.07142857142857,3743.9285714285716,3382.6071428571427,5710.0,7556.0
2026-01-10 21:54:41.160,36.39285714285714,3778.607142857143,3419.8392857142853,5709.568627450981,7553.78431372549
2026-01-10 21:54:41.180,36.714285714285715,3813.2857142857147,3457.0714285714284,5709.137254901961,7551.568627450981
2026-01-10 21:54:41.200,37.03571428571429,3847.964285714286,3494.3035714285716,5708.705882352941,7549.35294117647
2026-01-10 21:54:41.220,37.35714285714286,3882.6428571428573,3531.535714285714,5708.274509803921,7547.137254901961
2026-01-10 21:54:41.240,37.67857142857143,3917.3214285714284,3568.767857142857,5707.843137254902,7544.921568627451
2026-01-10 21:54:41.260,38.0,3952.0,3606.0,5707.411764705882,7542.705882352941
2026-01-10 21:54:41.280,79.82222222222222,3907.4444444444443,3607.9333333333334,5706.980392156863,7540.490196078431
2026-01-10 21:54:41.300,121.64444444444445,3862.8888888888887,3609.866666666667,5706.549019607844,7538.274509803921
2026-01-10 21:54:41.320,163.46666666666667,3818.3333333333335,3611.8,5706.117647058823,7536.058823529412
2026-01-10 21:54:41.340,205.2888888888889,3773.777777777778,3613.733333333333,5705.686274509804,7533.843137254902
2026-01-10 21:54:41.360,247.11111111111111,3729.222222222222,3615.6666666666665,5705.254901960784,7531.6274509803925
2026-01-10 21:54:41.380,288.93333333333334,3684.6666666666665,3617.6,5704.823529411765,7529.411764705882
2026-01-10 21:54:41.400,330.7555555555556,3640.1111111111113,3619.5333333333333,5704.392156862745,7527.196078431372
2026-01-10 21:54:41.420,372.5777777777778,3595.5555555555557,3621.4666666666667,5703.9607843137255,7524.980392156863
2026-01-10 21:54:41.440,414.4,3551.0,3623.4,5703.529411764706,7522.764705882353
2026-01-10 21:54:41.460,456.22222222222223,3506.4444444444443,3625.3333333333335,5703.098039215686,7520.549019607844
2026-01-10 21:54:41.480,498.0444444444445,3461.8888888888887,3627.266666666667,5702.666666666667,7518.333333333333
2026-01-10 21:54:41.500,539.8666666666667,3417.333333333333,3629.2,5702.235294117647,7516.117647058823
2026-01-10 21:54:41.520,581.6888888888889,3372.777777777778,3631.133333333333,5701.803921568628,7513.901960784314
2026-01-10 21:54:41.540,623.5111111111112,3328.222222222222,3633.0666666666666,5701.3725490196075,7511.686274509804
2026-01-10 21:54:41.560,665.3333333333334,3283.6666666666665,3635.0,5700.941176470588,7509.470588235294
2026-01-10 21:54:41.580,707.1555555555556,3239.1111111111113,3636.9333333333334,5700.509803921569,7507.254901960784
2026-01-10 21:54:41.600,748.9777777777778,3194.5555555555557,3638.866666666667,5700.078431372549,7505.0392156862745
2026-01-10 21:54:41.620,790.8,3150.0,3640.8,5699.64705882353,7502.823529411765
2026-01-10 21:54:41.640,832.6222222222223,3105.4444444444443,3642.733333333333,5699.21568627451,7500.607843137255
2026-01-10 21:54:41.660,874.4444444444445,3060.8888888888887,3644.6666666666665,5698.78431372549,7498.392156862745
2026-01-10 21:54:41.680,916.2666666666667,3016.333333333333,3646.6,5698.35294117647,7496.176470588235
2026-01-10 21:54:41.700,958.088888888889,2971.777777777778,3648.5333333333333,5697.921568627451,7493.9607843137255
2026-01-10 21:54:41.720,999.9111111111112,2927.222222222222,3650.4666666666667,5697.490196078431,7491.745098039216
2026-01-10 21:54:41.740,1041.7333333333333,2882.6666666666665,3652.4,5697.058823529412,7489.529411764706
2026-01-10 21:54:41.760,1083.5555555555557,2838.1111111111113,3654.3333333333335,5696.6274509803925,7487.313725490196
2026-01-10 21:54:41.780,1125.3777777777777,2793.5555555555557,3656.266666666667,5696.196078431372,7485.098039215686
2026-01-10 21:54:41.800,1167.2,2749.0,3658.2,5695.764705882353,7482.882352941177
2026-01-10 21:54:41.820,1209.0222222222224,2704.4444444444443,3660.133333333333,5695.333333333333,7480.666666666667
2026-01-10 21:54:41.840,1250.8444444444444,2659.8888888888887,3662.0666666666666,5694.901960784314,7478.450980392156
2026-01-10 21:54:41.860,1292.6666666666667,2615.333333333333,3664.0,5694.470588235294,7476.235294117647
2026-01-10 21:54:41.880,1334.4888888888888,2570.777777777778,3665.9333333333334,5694.0392156862745,7474.019607843137
2026-01-10 21:54:41.900,1376.3111111111111,2526.222222222222,3667.866666666667,5693.607843137255,7471.803921568628
2026-01-10 21:54:41.920,1418.1333333333334,2481.6666666666665,3669.8,5693.176470588235,7469.588235294118
2026-01-10 21:54:41.940,1459.9555555555555,2437.1111111111113,3671.733333333333,5692.745098039216,7467.3725490196075
2026-01-10 21:54:41.960,1501.7777777777778,2392.5555555555557,3673.6666666666665,5692.313725490196,7465.156862745098
2026-01-10 21:54:41.980,1543.6,2348.0,3675.6,5691.882352941177,7462.941176470588
2026-01-10 21:54:42.000,1585.4222222222222,2303.4444444444443,3677.5333333333333,5691.450980392156,7460.725490196079
2026-01-10 21:54:42.020,1627.2444444444445,2258.8888888888887,3679.4666666666667,5691.019607843137,7458.509803921568
2026-01-10 21:54:42.040,1669.0666666666666,2214.333333333333,3681.4,5690.588235294118,7456.294117647059
2026-01-10 21:54:42.060,1710.888888888889,2169.777777777778,3683.3333333333335,5690.156862745098,7454.078431372549
2026-01-10 21:54:42.080,1752.7111111111112,2125.222222222222,3685.266666666667,5689.725490196079,7451.862745098039
2026-01-10 21:54:42.100,1794.5333333333333,2080.6666666666665,3687.2,5689.294117647059,7449.64705882353
2026-01-10 21:54:42.120,1836.3555555555556,2036.111111111111,3689.133333333333,5688.862745098039,7447.431372549019
2026-01-10 21:54:42.140,1878.177777777778,1991.5555555555554,3691.0666666666666,5688.431372549019,7445.21568627451
2026-01-10 21:54:42.160,1920.0,1947.0,3693.0,5688.0,7443.0
2026-01-10 21:54:42.180,1881.6,1986.78,3687.16,5687.76,7441.7
2026-01-10 21:54:42.200,1843.2,2026.56,3681.32,5687.52,7440.4
2026-01-10 21:54:42.220,1804.8,2066.34,3675.48,5687.28,7439.1
2026-01-10 21:54:42.240,1766.4,2106.12,3669.64,5687.04,7437.8
2026-01-10 21:54:42.260,1728.0,2145.9,3663.8,5686.8,7436.5
2026-01-10 21:54:42.280,1689.6,2185.68,3657.96,5686.56,7435.2
2026-01-10 21:54:42.300,1651.2,2225.46,3652.12,5686.32,7433.9
2026-01-10 21:54:42.320,1612.8,2265.24,3646.28,5686.08,7432.6
2026-01-10 21:54:42.340,1574.4,2305.02,3640.44,5685.84,7431.3
2026-01-10 21:54:42.360,1536.0,2344.8,3634.6,5685.6,7430.0
2026-01-10 21:54:42.380,1497.6,2384.58,3628.76,5685.36,7428.7
2026-01-10 21:54:42.400,1459.2,2424.36,3622.92,5685.12,7427.4
2026-01-10 21:54:42.420,1420.8,2464.14,3617.08,5684.88,7426.1
2026-01-10 21:54:42.440,1382.4,2503.92,3611.24,5684.64,7424.8
2026-01-10 21:54:42.460,1344.0,2543.7,3605.4,5684.4,7423.5
2026-01-10 21:54:42.480,1305.6,2583.48,3599.56,5684.16,7422.2
2026-01-10 21:54:42.500,1267.2,2623.26,3593.72,5683.92,7420.9
2026-01-10 21:54:42.520,1228.8000000000002,2663.04,3587.88,5683.68,7419.6
2026-01-10 21:54:42.540,1190.4,2702.82,3582.04,5683.44,7418.3
2026-01-10 21:54:42.560,1152.0,2742.6,3576.2,5683.2,7417.0
2026-01-10 21:54:42.580,1113.6,2782.38,3570.36,5682.96,7415.7
2026-01-10 21:54:42.600,1075.2,2822.16,3564.52,5682.72,7414.4
2026-01-10 21:54:42.620,1036.8000000000002,2861.94,3558.68,5682.48,7413.1
2026-01-10 21:54:42.640,998.4000000000001,2901.7200000000003,3552.84,5682.24,7411.8
2026-01-10 21:54:42.660,960.0,2941.5,3547.0,5682.0,7410.5
2026-01-10 21:54:42.680,921.6,2981.2799999999997,3541.16,5681.76,7409.2
2026-01-10 21:54:42.700,883.2,3021.06,3535.32,5681.52,7407.9
2026-01-10 21:54:42.720,844.8,3060.84,3529.48,5681.28,7406.6
2026-01-10 21:54:42.740,806.4000000000001,3100.62,3523.64,5681.04,7405.3
2026-01-10 21:54:42.760,768.0,3140.4,3517.8,5680.8,7404.0
2026-01-10 21:54:42.780,729.6000000000001,3180.1800000000003,3511.96,5680.56,7402.7
2026-01-10 21:54:42.800,691.2,3219.96,3506.12,5680.32,7401.4
2026-01-10 21:54:42.820,652.8,3259.74,3500.28,5680.08,7400.1
2026-01-10 21:54:42.840,614.4000000000001,3299.52,3494.44,5679.84,7398.8
2026-01-10 21:54:42.860,576.0,3339.3,3488.6,5679.6,7397.5
2026-01-10 21:54:42.880,537.6000000000001,3379.08,3482.76,5679.36,7396.2
2026-01-10 21:54:42.900,499.20000000000005,3418.86,3476.92,5679.12,7394.9
2026-01-10 21:54:42.920,460.79999999999995,3458.6400000000003,3471.08,5678.88,7393.6
2026-01-10 21:54:42.940,422.4000000000001,3498.42,3465.24,5678.64,7392.3
2026-01-10 21:54:42.960,384.0,3538.2,3459.4,5678.4,7391.0
2026-01-10 21:54:42.980,345.60000000000014,3577.98,3453.56,5678.16,7389.7
2026-01-10 21:54:43.000,307.20000000000005,3617.76,3447.72,5677.92,7388.4
2026-01-10 21:54:43.020,268.79999999999995,3657.54,3441.88,5677.68,7387.1
2026-01-10 21:54:43.040,230.4000000000001,3697.32,3436.04,5677.44,7385.8
2026-01-10 21:54:43.060,192.0,3737.1000000000004,3430.2,5677.2,7384.5
2026-01-10 21:54:43.080,153.60000000000014,3776.88,3424.36,5676.96,7383.2
2026-01-10 21:54:43.100,115.20000000000005,3816.66,3418.52,5676.72,7381.9
2026-01-10 21:54:43.120,76.80000000000018,3856.44,3412.68,5676.48,7380.6
2026-01-10 21:54:43.140,38.40000000000009,3896.2200000000003,3406.84,5676.24,7379.3
2026-01-10 21:54:43.160,0.0,3936.0,3401.0,5676.0,7378.0
2026-01-10 21:54:43.180,0.5294117647058824,3934.607843137255,3405.0392156862745,5676.274509803921,7378.705882352941
2026-01-10 21:54:43.200,1.0588235294117647,3933.2156862745096,3409.078431372549,5676.549019607844,7379.411764705882
2026-01-10 21:54:43.220,1.5882352941176472,3931.823529411765,3413.1176470588234,5676.823529411765,7380.117647058823
2026-01-10 21:54:43.240,2.1176470588235294,3930.4313725490197,3417.156862745098,5677.098039215686,7380.823529411765
2026-01-10 21:54:43.260,2.6470588235294117,3929.0392156862745,3421.1960784313724,5677.3725490196075,7381.529411764706
2026-01-10 21:54:43.280,3.1764705882352944,3927.6470588235293,3425.235294117647,5677.64705882353,7382.235294117647
2026-01-10 21:54:43.300,3.7058823529411766,3926.2549019607845,3429.274509803922,5677.921568627451,7382.941176470588
2026-01-10 21:54:43.320,4.235294117647059,3924.8627450980393,3433.3137254901962,5678.196078431372,7383.64705882353
2026-01-10 21:54:43.340,4.764705882352941,3923.470588235294,3437.3529411764707,5678.470588235294,7384.35294117647
2026-01-10 21:54:43.360,5.294117647058823,3922.078431372549,3441.392156862745,5678.745098039216,7385.058823529412
2026-01-10 21:54:43.380,5.823529411764706,3920.6862745098038,3445.4313725490197,5679.019607843137,7385.764705882353
2026-01-10 21:54:43.400,6.352941176470589,3919.294117647059,3449.470588235294,5679.294117647059,7386.470588235294
2026-01-10 21:54:43.420,6.882352941176471,3917.901960784314,3453.5098039215686,5679.568627450981,7387.176470588235
2026-01-10 21:54:43.440,7.411764705882353,3916.5098039215686,3457.549019607843,5679.843137254902,7387.882352941177
2026-01-10 21:54:43.460,7.9411764705882355,3915.1176470588234,3461.5882352941176,5680.117647058823,7388.588235294118
2026-01-10 21:54:43.480,8.470588235294118,3913.725490196078,3465.627450980392,5680.392156862745,7389.294117647059
2026-01-10 21:54:43.500,9.0,3912.3333333333335,3469.6666666666665,5680.666666666667,7390.0
2026-01-10 21:54:43.520,9.529411764705882,3910.9411764705883,3473.705882352941,5680.941176470588,7390.705882352941
2026-01-10 21:54:43.540,10.058823529411764,3909.549019607843,3477.745098039216,5681.21568627451,7391.411764705882
2026-01-10 21:54:43.560,10.588235294117647,3908.156862745098,3481.7843137254904,5681.490196078431,7392.117647058823
2026-01-10 21:54:43.580,11.117647058823529,3906.764705882353,3485.823529411765,5681.764705882353,7392.823529411765
2026-01-10 21:54:43.600,11.647058823529411,3905.372549019608,3489.8627450980393,5682.0392156862745,7393.529411764706
2026-01-10 21:54:43.620,12.176470588235293,3903.9803921568628,3493.901960784314,5682.313725490196,7394.235294117647
2026-01-10 21:54:43.640,12.705882352941178,3902.5882352941176,3497.9411764705883,5682.588235294118,7394.941176470588
2026-01-10 21:54:43.660,13.23529411764706,3901.1960784313724,3501.9803921568628,5682.862745098039,7395.64705882353
2026-01-10 21:54:43.680,13.764705882352942,3899.8039215686276,3506.0196078431372,5683.137254901961,7396.35294117647
2026-01-10 21:54:43.700,14.294117647058824,3898.4117647058824,3510.0588235294117,5683.411764705882,7397.058823529412
2026-01-10 21:54:43.720,14.823529411764707,3897.0196078431372,3514.098039215686,5683.686274509804,7397.764705882353
2026-01-10 21:54:43.740,15.352941176470589,3895.627450980392,3518.1372549019607,5683.9607843137255,7398.470588235294
2026-01-10 21:54:43.760,15.882352941176471,3894.235294117647,3522.176470588235,5684.235294117647,7399.176470588235
2026-01-10 21:54:43.780,16.41176470588235,3892.843137254902,3526.2156862745096,5684.509803921569,7399.882352941177
2026-01-10 21:54:43.800,16.941176470588236,3891.450980392157,3530.254901960784,5684.78431372549,7400.588235294118
2026-01-10 21:54:43.820,17.47058823529412,3890.0588235294117,3534.294117647059,5685.058823529412,7401.294117647059
2026-01-10 21:54:43.840,18.0,3888.6666666666665,3538.3333333333335,5685.333333333333,7402.0
2026-01-10 21:54:43.860,18.529411764705884,3887.274509803922,3542.372549019608,5685.607843137255,7402.705882352941
2026-01-10 21:54:43.880,19.058823529411764,3885.8823529411766,3546.4117647058824,5685.882352941177,7403.411764705882
2026-01-10 21:54:43.900,19.58823529411765,3884.4901960784314,3550.450980392157,5686.156862745098,7404.117647058823
2026-01-10 21:54:43.920,20.11764705882353,3883.098039215686,3554.4901960784314,5686.431372549019,7404.823529411765
2026-01-10 21:54:43.940,20.647058823529413,3881.705882352941,3558.529411764706,5686.705882352941,7405.529411764706
2026-01-10 21:54:43.960,21.176470588235293,3880.3137254901962,3562.5686274509803,5686.980392156863,7406.235294117647
2026-01-10 21:54:43.980,21.705882352941178,3878.921568627451,3566.607843137255,5687.254901960784,7406.941176470588
2026-01-10 21:54:44.000,22.235294117647058,3877.529411764706,3570.6470588235293,5687.529411764706,7407.64705882353
2026-01-10 21:54:44.020,22.764705882352942,3876.1372549019607,3574.6862745098038,5687.803921568628,7408.35294117647
2026-01-10 21:54:44.040,23.294117647058822,3874.745098039216,3578.725490196078,5688.078431372549,7409.058823529412
2026-01-10 21:54:44.060,23.823529411764707,3873.3529411764707,3582.764705882353,5688.35294117647,7409.764705882353
2026-01-10 21:54:44.080,24.352941176470587,3871.9607843137255,3586.8039215686276,5688.6274509803925,7410.470588235294
2026-01-10 21:54:44.100,24.88235294117647,3870.5686274509803,3590.843137254902,5688.901960784314,7411.176470588235
2026-01-10 21:54:44.120,25.411764705882355,3869.176470588235,3594.8823529411766,5689.176470588235,7411.882352941177
2026-01-10 21:54:44.140,25.941176470588236,3867.7843137254904,3598.921568627451,5689.450980392156,7412.588235294118
2026-01-10 21:54:44.160,26.47058823529412,3866.392156862745,3602.9607843137255,5689.725490196079,7413.294117647059
2026-01-10 21:54:44.180,27.0,3865.0,3607.0,5690.0,7414.0
2026-01-10 21:54:44.200,57.725806451612904,3807.564516129032,3576.2096774193546,5688.387096774193,7410.048387096775
2026-01-10 21:54:44.220,88.45161290322581,3750.1290322580644,3545.4193548387098,5686.774193548387,7406.096774193548
2026-01-10 21:54:44.240,119.17741935483872,3692.6935483870966,3514.6290322580644,5685.1612903225805,7402.145161290323
2026-01-10 21:54:44.260,149.90322580645162,3635.258064516129,3483.8387096774195,5683.548387096775,7398.193548387097
2026-01-10 21:54:44.280,180.6290322580645,3577.8225806451615,3453.048387096774,5681.935483870968,7394.241935483871
2026-01-10 21:54:44.300,211.35483870967744,3520.3870967741937,3422.258064516129,5680.322580645161,7390.290322580645
2026-01-10 21:54:44.320,242.08064516129033,3462.951612903226,3391.467741935484,5678.709677419355,7386.3387096774195
2026-01-10 21:54:44.340,272.80645161290323,3405.516129032258,3360.6774193548385,5677.096774193548,7382.387096774193
2026-01-10 21:54:44.360,303.53225806451616,3348.0806451612902,3329.8870967741937,5675.4838709677415,7378.435483870968
2026-01-10 21:54:44.380,334.258064516129,3290.6451612903224,3299.0967741935483,5673.870967741936,7374.4838709677415
2026-01-10 21:54:44.400,364.98387096774195,3233.209677419355,3268.3064516129034,5672.258064516129,7370.532258064516
2026-01-10 21:54:44.420,395.7096774193549,3175.7741935483873,3237.516129032258,5670.645161290323,7366.580645161291
2026-01-10 21:54:44.440,426.43548387096774,3118.3387096774195,3206.7258064516127,5669.032258064516,7362.629032258064
2026-01-10 21:54:44.460,457.16129032258067,3060.9032258064517,3175.935483870968,5667.419354838709,7358.677419354839
2026-01-10 21:54:44.480,487.88709677419354,3003.467741935484,3145.1451612903224,5665.806451612903,7354.725806451613
2026-01-10 21:54:44.500,518.6129032258065,2946.032258064516,3114.3548387096776,5664.193548387097,7350.774193548387
2026-01-10 21:54:44.520,549.3387096774194,2888.5967741935483,3083.564516129032,5662.580645161291,7346.822580645161
2026-01-10 21:54:44.540,580.0645161290323,2831.1612903225805,3052.7741935483873,5660.967741935484,7342.870967741936
2026-01-10 21:54:44.560,610.7903225806451,2773.7258064516127,3021.983870967742,5659.354838709677,7338.919354838709
2026-01-10 21:54:44.580,641.516129032258,2716.290322580645,2991.1935483870966,5657.741935483871,7334.967741935484
2026-01-10 21:54:44.600,672.241935483871,2658.854838709677,2960.4032258064517,5656.129032258064,7331.0161290322585
2026-01-10 21:54:44.620,702.9677419354839,2601.4193548387098,2929.6129032258063,5654.5161290322585,7327.064516129032
2026-01-10 21:54:44.640,733.6935483870968,2543.983870967742,2898.8225806451615,5652.903225806452,7323.112903225807
2026-01-10 21:54:44.660,764.4193548387098,2486.548387096774,2868.032258064516,5651.290322580645,7319.1612903225805
2026-01-10 21:54:44.680,795.1451612903226,2429.1129032258063,2837.241935483871,5649.677419354839,7315.209677419355
2026-01-10 21:54:44.700,825.8709677419355,2371.6774193548385,2806.451612903226,5648.064516129032,7311.258064516129
2026-01-10 21:54:44.720,856.5967741935484,2314.241935483871,2775.6612903225805,5646.451612903225,7307.306451612903
2026-01-10 21:54:44.740,887.3225806451613,2256.8064516129034,2744.8709677419356,5644.8387096774195,7303.354838709677
2026-01-10 21:54:44.760,918.0483870967743,2199.3709677419356,2714.0806451612902,5643.225806451613,7299.403225806452
2026-01-10 21:54:44.780,948.7741935483871,2141.935483870968,2683.2903225806454,5641.612903225807,7295.451612903225
2026-01-10 21:54:44.800,979.5,2084.5,2652.5,5640.0,7291.5
2026-01-10 21:54:44.820,1010.2258064516129,2027.0645161290322,2621.709677419355,5638.387096774193,7287.548387096775
2026-01-10 21:54:44.840,1040.9516129032259,1969.6290322580644,2590.9193548387098,5636.774193548387,7283.596774193548
2026-01-10 21:54:44.860,1071.6774193548388,1912.1935483870966,2560.1290322580644,5635.1612903225805,7279.645161290323
2026-01-10 21:54:44.880,1102.4032258064517,1854.758064516129,2529.3387096774195,5633.548387096775,7275.693548387097
2026-01-10 21:54:44.900,1133.1290322580646,1797.322580645161,2498.548387096774,5631.935483870968,7271.741935483871
2026-01-10 21:54:44.920,1163.8548387096776,1739.8870967741937,2467.758064516129,5630.322580645161,7267.790322580645
2026-01-10 21:54:44.940,1194.5806451612902,1682.4516129032259,2436.967741935484,5628.709677419355,7263.8387096774195
2026-01-10 21:54:44.960,1225.3064516129032,1625.016129032258,2406.177419354839,5627.096774193548,7259.887096774193
2026-01-10 21:54:44.980,1256.032258064516,1567.5806451612902,2375.3870967741937,5625.4838709677415,7255.935483870968
2026-01-10 21:54:45.000,1286.758064516129,1510.1451612903224,2344.5967741935483,5623.870967741936,7251.9838709677415
2026-01-10 21:54:45.020,1317.483870967742,1452.7096774193546,2313.8064516129034,5622.258064516129,7248.032258064516
2026-01-10 21:54:45.040,1348.2096774193549,1395.2741935483868,2283.016129032258,5620.645161290323,7244.080645161291
2026-01-10 21:54:45.060,1378.9354838709678,1337.8387096774195,2252.2258064516127,5619.032258064516,7240.129032258064
2026-01-10 21:54:45.080,1409.6612903225807,1280.4032258064517,2221.435483870968,5617.419354838709,7236.177419354839
2026-01-10 21:54:45.100,1440.3870967741937,1222.967741935484,2190.645161290323,5615.806451612903,7232.225806451613
2026-01-10 21:54:45.120,1471.1129032258066,1165.532258064516,2159.8548387096776,5614.193548387097,7228.274193548387
2026-01-10 21:54:45.140,1501.8387096774195,1108.0967741935483,2129.064516129032,5612.580645161291,7224.322580645161
2026-01-10 21:54:45.160,1532.5645161290322,1050.6612903225805,2098.2741935483873,5610.967741935484,7220.370967741936
2026-01-10 21:54:45.180,1563.2903225806451,993.2258064516127,2067.483870967742,5609.354838709677,7216.419354838709
2026-01-10 21:54:45.200,1594.016129032258,935.7903225806449,2036.6935483870968,5607.741935483871,7212.467741935484
2026-01-10 21:54:45.220,1624.741935483871,878.3548387096771,2005.9032258064517,5606.129032258064,7208.516129032258
2026-01-10 21:54:45.240,1655.467741935484,820.9193548387098,1975.1129032258066,5604.5161290322585,7204.564516129032
2026-01-10 21:54:45.260,1686.1935483870968,763.483870967742,1944.3225806451615,5602.903225806452,7200.612903225807
2026-01-10 21:54:45.280,1716.9193548387098,706.0483870967741,1913.532258064516,5601.290322580645,7196.6612903225805
2026-01-10 21:54:45.300,1747.6451612903227,648.6129032258063,1882.741935483871,5599.677419354839,7192.709677419355
2026-01-10 21:54:45.320,1778.3709677419356,591.1774193548385,1851.9516129032259,5598.064516129032,7188.758064516129
2026-01-10 21:54:45.340,1809.0967741935485,533.7419354838707,1821.1612903225807,5596.451612903225,7184.806451612903
2026-01-10 21:54:45.360,1839.8225806451612,476.30645161290295,1790.3709677419356,5594.8387096774195,7180.854838709677
2026-01-10 21:54:45.380,1870.5483870967741,418.8709677419356,1759.5806451612905,5593.225806451613,7176.903225806452
2026-01-10 21:54:45.400,1901.274193548387,361.4354838709678,1728.7903225806451,5591.612903225807,7172.951612903225
2026-01-10 21:54:45.420,1932.0,304.0,1698.0,5590.0,7169.0
2026-01-10 21:54:45.440,1932.0806451612902,303.48387096774195,1729.2096774193549,5591.725,7167.75
2026-01-10 21:54:45.460,1932.1612903225807,302.96774193548384,1760.4193548387098,5593.45,7166.5
2026-01-10 21:54:45.480,1932.241935483871,302.4516129032258,1791.6290322580644,5595.175,7165.25
2026-01-10 21:54:45.500,1932.3225806451612,301.93548387096774,1822.8387096774193,5596.9,7164.0
2026-01-10 21:54:45.520,1932.4032258064517,301.4193548387097,1854.0483870967741,5598.625,7162.75
2026-01-10 21:54:45.540,1932.483870967742,300.9032258064516,1885.258064516129,5600.35,7161.5
2026-01-10 21:54:45.560,1932.5645161290322,300.38709677419354,1916.467741935484,5602.075,7160.25
2026-01-10 21:54:45.580,1932.6451612903227,299.8709677419355,1947.6774193548388,5603.8,7159.0
2026-01-10 21:54:45.600,1932.725806451613,299.35483870967744,1978.8870967741937,5605.525,7157.75
2026-01-10 21:54:45.620,1932.8064516129032,298.83870967741933,2010.0967741935483,5607.25,7156.5
2026-01-10 21:54:45.640,1932.8870967741937,298.3225806451613,2041.3064516129032,5608.975,7155.25
2026-01-10 21:54:45.660,1932.967741935484,297.80645161290323,2072.516129032258,5610.7,7154.0
2026-01-10 21:54:45.680,1933.0483870967741,297.2903225806452,2103.7258064516127,5612.425,7152.75
2026-01-10 21:54:45.700,1933.1290322580646,296.7741935483871,2134.935483870968,5614.15,7151.5
2026-01-10 21:54:45.720,1933.2096774193549,296.258064516129,2166.1451612903224,5615.875,7150.25
2026-01-10 21:54:45.740,1933.2903225806451,295.741935483871,2197.3548387096776,5617.6,7149.0
2026-01-10 21:54:45.760,1933.3709677419354,295.2258064516129,2228.564516129032,5619.325,7147.75
2026-01-10 21:54:45.780,1933.4516129032259,294.7096774193548,2259.7741935483873,5621.05,7146.5
2026-01-10 21:54:45.800,1933.532258064516,294.19354838709677,2290.983870967742,5622.775,7145.25
2026-01-10 21:54:45.820,1933.6129032258063,293.6774193548387,2322.1935483870966,5624.5,7144.0
2026-01-10 21:54:45.840,1933.6935483870968,293.16129032258067,2353.4032258064517,5626.225,7142.75
2026-01-10 21:54:45.860,1933.774193548387,292.64516129032256,2384.6129032258063,5627.95,7141.5
2026-01-10 21:54:45.880,1933.8548387096773,292.1290322580645,2415.8225806451615,5629.675,7140.25
2026-01-10 21:54:45.900,1933.9354838709678,291.61290322580646,2447.032258064516,5631.4,7139.0
2026-01-10 21:54:45.920,1934.016129032258,291.0967741935484,2478.241935483871,5633.125,7137.75
2026-01-10 21:54:45.940,1934.0967741935483,290.5806451612903,2509.451612903226,5634.85,7136.5
2026-01-10 21:54:45.960,1934.1774193548388,290.06451612903226,2540.6612903225805,5636.575,7135.25
2026-01-10 21:54:45.980,1934.258064516129,289.5483870967742,2571.8709677419356,5638.3,7134.0
2026-01-10 21:54:46.000,1934.3387096774193,289.03225806451616,2603.0806451612902,5640.025,7132.75
2026-01-10 21:54:46.020,1934.4193548387098,288.51612903225805,2634.2903225806454,5641.75,7131.5
2026-01-10 21:54:46.040,1934.5,288.0,2665.5,5643.475,7130.25
2026-01-10 21:54:46.060,1934.5806451612902,287.48387096774195,2696.709677419355,5645.2,7129.0
2026-01-10 21:54:46.080,1934.6612903225807,286.9677419354839,2727.9193548387098,5646.925,7127.75
2026-01-10 21:54:46.100,1934.741935483871,286.4516129032258,2759.1290322580644,5648.65,7126.5
2026-01-10 21:54:46.120,1934.8225806451612,285.93548387096774,2790.3387096774195,5650.375,7125.25
2026-01-10 21:54:46.140,1934.9032258064517,285.4193548387097,2821.548387096774,5652.1,7124.0
2026-01-10 21:54:46.160,1934.983870967742,284.9032258064516,2852.758064516129,5653.825,7122.75
2026-01-10 21:54:46.180,1935.0645161290322,284.38709677419354,2883.967741935484,5655.55,7121.5
2026-01-10 21:54:46.200,1935.1451612903227,283.8709677419355,2915.177419354839,5657.275,7120.25
2026-01-10 21:54:46.220,1935.225806451613,283.35483870967744,2946.3870967741937,5659.0,7119.0
2026-01-10 21:54:46.240,1935.3064516129032,282.83870967741933,2977.5967741935483,5659.0888888888885,7118.772727272727
2026-01-10 21:54:46.260,1935.3870967741937,282.3225806451613,3008.8064516129034,5659.177777777778,7118.545454545455
2026-01-10 21:54:46.280,1935.467741935484,281.80645161290323,3040.016129032258,5659.266666666666,7118.318181818182
2026-01-10 21:54:46.300,1935.5483870967741,281.2903225806452,3071.2258064516127,5659.355555555556,7118.090909090909
2026-01-10 21:54:46.320,1935.6290322580646,280.7741935483871,3102.435483870968,5659.444444444444,7117.863636363636
2026-01-10 21:54:46.340,1935.7096774193549,280.258064516129,3133.645161290323,5659.533333333334,7117.636363636364
2026-01-10 21:54:46.360,1935.7903225806451,279.741935483871,3164.8548387096776,5659.622222222222,7117.409090909091
2026-01-10 21:54:46.380,1935.8709677419354,279.2258064516129,3196.064516129032,5659.711111111111,7117.181818181818
2026-01-10 21:54:46.400,1935.9516129032259,278.7096774193548,3227.2741935483873,5659.8,7116.954545454545
2026-01-10 21:54:46.420,1936.032258064516,278.19354838709677,3258.483870967742,5659.888888888889,7116.727272727273
2026-01-10 21:54:46.440,1936.1129032258063,277.6774193548387,3289.6935483870966,5659.977777777778,7116.5
2026-01-10 21:54:46.460,1936.1935483870968,277.16129032258067,3320.9032258064517,5660.066666666667,7116.272727272727
2026-01-10 21:54:46.480,1936.274193548387,276.64516129032256,3352.112903225807,5660.155555555555,7116.045454545455
2026-01-10 21:54:46.500,1936.3548387096773,276.1290322580645,3383.3225806451615,5660.2444444444445,7115.818181818182
2026-01-10 21:54:46.520,1936.4354838709678,275.61290322580646,3414.532258064516,5660.333333333333,7115.590909090909
2026-01-10 21:54:46.540,1936.516129032258,275.0967741935484,3445.741935483871,5660.422222222222,7115.363636363636
2026-01-10 21:54:46.560,1936.5967741935483,274.5806451612903,3476.951612903226,5660.511111111111,7115.136363636364
2026-01-10 21:54:46.580,1936.6774193548388,274.06451612903226,3508.1612903225805,5660.6,7114.909090909091
2026-01-10 21:54:46.600,1936.758064516129,273.5483870967742,3539.3709677419356,5660.688888888889,7114.681818181818
2026-01-10 21:54:46.620,1936.8387096774193,273.0322580645161,3570.5806451612907,5660.777777777777,7114.454545454545
2026-01-10 21:54:46.640,1936.9193548387098,272.51612903225805,3601.790322580645,5660.866666666667,7114.227272727273
2026-01-10 21:54:46.660,1937.0,272.0,3633.0,5660.955555555555,7114.0
2026-01-10 21:54:46.680,1936.695652173913,347.2173913043478,3540.695652173913,5661.044444444445,7113.772727272727
2026-01-10 21:54:46.700,1936.391304347826,422.4347826086956,3448.391304347826,5661.133333333333,7113.545454545455
2026-01-10 21:54:46.720,1936.0869565217392,497.6521739130435,3356.086956521739,5661.222222222223,7113.318181818182
2026-01-10 21:54:46.740,1935.7826086956522,572.8695652173913,3263.782608695652,5661.311111111111,7113.090909090909
2026-01-10 21:54:46.760,1935.4782608695652,648.0869565217391,3171.478260869565,5661.4,7112.863636363636
2026-01-10 21:54:46.780,1935.1739130434783,723.304347826087,3079.173913043478,5661.488888888889,7112.636363636364
2026-01-10 21:54:46.800,1934.8695652173913,798.5217391304348,2986.8695652173915,5661.577777777778,7112.409090909091
2026-01-10 21:54:46.820,1934.5652173913043,873.7391304347826,2894.5652173913045,5661.666666666667,7112.181818181818
2026-01-10 21:54:46.840,1934.2608695652175,948.9565217391305,2802.2608695652175,5661.7555555555555,7111.954545454545
2026-01-10 21:54:46.860,1933.9565217391305,1024.1739130434783,2709.9565217391305,5661.844444444445,7111.727272727273
2026-01-10 21:54:46.880,1933.6521739130435,1099.391304347826,2617.6521739130435,5661.933333333333,7111.5
2026-01-10 21:54:46.900,1933.3478260869565,1174.608695652174,2525.3478260869565,5662.022222222222,7111.272727272727
2026-01-10 21:54:46.920,1933.0434782608695,1249.8260869565217,2433.0434782608695,5662.111111111111,7111.045454545455
2026-01-10 21:54:46.940,1932.7391304347825,1325.0434782608695,2340.739130434783,5662.2,7110.818181818182
2026-01-10 21:54:46.960,1932.4347826086957,1400.2608695652175,2248.434782608696,5662.288888888889,7110.590909090909
2026-01-10 21:54:46.980,1932.1304347826087,1475.4782608695652,2156.130434782609,5662.377777777778,7110.363636363636
2026-01-10 21:54:47.000,1931.8260869565217,1550.695652173913,2063.826086956522,5662.466666666666,7110.136363636364
2026-01-10 21:54:47.020,1931.5217391304348,1625.913043478261,1971.5217391304348,5662.555555555556,7109.909090909091
2026-01-10 21:54:47.040,1931.2173913043478,1701.1304347826087,1879.217391304348,5662.644444444444,7109.681818181818
2026-01-10 21:54:47.060,1930.9130434782608,1776.3478260869565,1786.913043478261,5662.733333333334,7109.454545454545
2026-01-10 21:54:47.080,1930.608695652174,1851.5652173913045,1694.608695652174,5662.822222222222,7109.227272727273
2026-01-10 21:54:47.100,1930.304347826087,1926.7826086956522,1602.304347826087,5662.9111111111115,7109.0
2026-01-10 21:54:47.120,1930.0,2002.0,1510.0,5663.0,7108.921568627451
2026-01-10 21:54:47.140,1965.6785714285713,2001.6607142857142,1510.107142857143,5663.142857142857,7108.843137254902
2026-01-10 21:54:47.160,2001.357142857143,2001.3214285714287,1510.2142857142858,5663.285714285715,7108.764705882353
2026-01-10 21:54:47.180,2037.0357142857142,2000.982142857143,1510.3214285714287,5663.428571428572,7108.686274509804
2026-01-10 21:54:47.200,2072.714285714286,2000.642857142857,1510.4285714285713,5663.571428571428,7108.607843137255
2026-01-10 21:54:47.220,2108.3928571428573,2000.3035714285713,1510.5357142857142,5663.714285714285,7108.529411764706
2026-01-10 21:54:47.240,2144.0714285714284,1999.9642857142858,1510.642857142857,5663.857142857143,7108.450980392156
2026-01-10 21:54:47.260,2179.75,1999.625,1510.75,5664.0,7108.3725490196075
2026-01-10 21:54:47.280,2215.4285714285716,1999.2857142857142,1510.857142857143,5664.142857142857,7108.294117647059
2026-01-10 21:54:47.300,2251.107142857143,1998.9464285714287,1510.9642857142858,5664.285714285715,7108.21568627451
2026-01-10 21:54:47.320,2286.785714285714,1998.607142857143,1511.0714285714287,5664.428571428572,7108.137254901961
2026-01-10 21:54:47.340,2322.464285714286,1998.267857142857,1511.1785714285713,5664.571428571428,7108.058823529412
2026-01-10 21:54:47.360,2358.1428571428573,1997.9285714285713,1511.2857142857142,5664.714285714285,7107.980392156863
2026-01-10 21:54:47.380,2393.8214285714284,1997.5892857142858,1511.392857142857,5664.857142857143,7107.901960784314
2026-01-10 21:54:47.400,2429.5,1997.25,1511.5,5665.0,7107.823529411765
2026-01-10 21:54:47.420,2465.1785714285716,1996.9107142857142,1511.607142857143,5665.142857142857,7107.745098039216
2026-01-10 21:54:47.440,2500.857142857143,1996.5714285714287,1511.7142857142858,5665.285714285715,7107.666666666667
2026-01-10 21:54:47.460,2536.535714285714,1996.232142857143,1511.8214285714287,5665.428571428572,7107.588235294118
2026-01-10 21:54:47.480,2572.214285714286,1995.892857142857,1511.9285714285713,5665.571428571428,7107.509803921569
2026-01-10 21:54:47.500,2607.8928571428573,1995.5535714285713,1512.0357142857142,5665.714285714285,7107.431372549019
2026-01-10 21:54:47.520,2643.5714285714284,1995.2142857142858,1512.142857142857,5665.857142857143,7107.35294117647
2026-01-10 21:54:47.540,2679.25,1994.875,1512.25,5666.0,7107.274509803921
2026-01-10 21:54:47.560,2714.9285714285716,1994.5357142857142,1512.357142857143,5666.142857142857,7107.196078431372
2026-01-10 21:54:47.580,2750.607142857143,1994.1964285714287,1512.4642857142858,5666.285714285715,7107.117647058823
2026-01-10 21:54:47.600,2786.285714285714,1993.857142857143,1512.5714285714287,5666.428571428572,7107.0392156862745
2026-01-10 21:54:47.620,2821.964285714286,1993.517857142857,1512.6785714285713,5666.571428571428,7106.9607843137255
2026-01-10 21:54:47.640,2857.6428571428573,1993.1785714285713,1512.7857142857142,5666.714285714285,7106.882352941177
2026-01-10 21:54:47.660,2893.3214285714284,1992.8392857142858,1512.892857142857,5666.857142857143,7106.803921568628
2026-01-10 21:54:47.680,2929.0,1992.5,1513.0,5667.0,7106.725490196079
2026-01-10 21:54:47.700,2964.6785714285716,1992.1607142857142,1513.107142857143,5667.142857142857,7106.64705882353
2026-01-10 21:54:47.720,3000.357142857143,1991.8214285714287,1513.2142857142858,5667.285714285715,7106.568627450981
2026-01-10 21:54:47.740,3036.0357142857147,1991.482142857143,1513.3214285714287,5667.428571428572,7106.490196078431
2026-01-10 21:54:47.760,3071.714285714286,1991.142857142857,1513.4285714285713,5667.571428571428,7106.411764705882
2026-01-10 21:54:47.780,3107.392857142857,1990.8035714285713,1513.5357142857142,5667.714285714285,7106.333333333333
2026-01-10 21:54:47.800,3143.0714285714284,1990.4642857142858,1513.642857142857,5667.857142857143,7106.254901960784
2026-01-10 21:54:47.820,3178.75,1990.125,1513.75,5668.0,7106.176470588235
2026-01-10 21:54:47.840,3214.4285714285716,1989.7857142857142,1513.857142857143,5668.142857142857,7106.098039215686
2026-01-10 21:54:47.860,3250.107142857143,1989.4464285714287,1513.9642857142858,5668.285714285715,7106.019607843137
2026-01-10 21:54:47.880,3285.7857142857147,1989.107142857143,1514.0714285714287,5668.428571428572,7105.941176470588
2026-01-10 21:54:47.900,3321.464285714286,1988.767857142857,1514.1785714285713,5668.571428571428,7105.862745098039
2026-01-10 21:54:47.920,3357.1428571428573,1988.4285714285713,1514.2857142857142,5668.714285714285,7105.78431372549
2026-01-10 21:54:47.940,3392.8214285714284,1988.0892857142858,1514.392857142857,5668.857142857143,7105.705882352941
2026-01-10 21:54:47.960,3428.5,1987.75,1514.5,5669.0,7105.6274509803925
2026-01-10 21:54:47.980,3464.1785714285716,1987.4107142857142,1514.607142857143,5669.142857142857,7105.549019607844
2026-01-10 21:54:48.000,3499.857142857143,1987.0714285714287,1514.7142857142858,5669.285714285715,7105.470588235294
2026-01-10 21:54:48.020,3535.5357142857147,1986.732142857143,1514.8214285714287,5669.428571428572,7105.392156862745
2026-01-10 21:54:48.040,3571.214285714286,1986.392857142857,1514.9285714285713,5669.571428571428,7105.313725490196
2026-01-10 21:54:48.060,3606.8928571428573,1986.0535714285713,1515.0357142857142,5669.714285714285,7105.235294117647
2026-01-10 21:54:48.080,3642.5714285714284,1985.7142857142858,1515.142857142857,5669.857142857143,7105.156862745098
2026-01-10 21:54:48.100,3678.25,1985.375,1515.25,5670.0,7105.078431372549
2026-01-10 21:54:48.120,3713.9285714285716,1985.0357142857142,1515.357142857143,5670.142857142857,7105.0
2026-01-10 21:54:48.140,3749.607142857143,1984.6964285714287,1515.4642857142858,5670.285714285715,7105.0
2026-01-10 21:54:48.160,3785.2857142857147,1984.357142857143,1515.5714285714287,5670.428571428572,7105.0
2026-01-10 21:54:48.180,3820.964285714286,1984.017857142857,1515.6785714285713,5670.571428571428,7105.0
2026-01-10 21:54:48.200,3856.6428571428573,1983.6785714285713,1515.7857142857142,5670.714285714285,7105.0
2026-01-10 21:54:48.220,3892.3214285714284,1983.3392857142858,1515.892857142857,5670.857142857143,7105.0
2026-01-10 21:54:48.240,3928.0,1983.0,1516.0,5671.0,7105.0
