timestamp,accX,accY,accZ,ppg,spO2
2026-01-08 18:03:13.340,3937.0,-1916.0,-1637.0,5030.0,5574.0
2026-01-08 18:03:13.360,3936.62,-1871.72,-1636.32,5028.86,5575.98
2026-01-08 18:03:13.380,3936.24,-1827.44,-1635.64,5027.72,5577.96
2026-01-08 18:03:13.400,3935.86,-1783.16,-1634.96,5026.58,5579.94
2026-01-08 18:03:13.420,3935.48,-1738.88,-1634.28,5025.44,5581.92
2026-01-08 18:03:13.440,3935.1,-1694.6,-1633.6,5024.3,5583.9
2026-01-08 18:03:13.460,3934.72,-1650.32,-1632.92,5023.16,5585.88
2026-01-08 18:03:13.480,3934.34,-1606.04,-1632.24,5022.02,5587.86
2026-01-08 18:03:13.500,3933.96,-1561.76,-1631.56,5020.88,5589.84
2026-01-08 18:03:13.520,3933.58,-1517.48,-1630.88,5019.74,5591.82
2026-01-08 18:03:13.540,3933.2,-1473.2,-1630.2,5018.6,5593.8
2026-01-08 18:03:13.560,3932.82,-1428.92,-1629.52,5017.46,5595.78
2026-01-08 18:03:13.580,3932.44,-1384.6399999999999,-1628.84,5016.32,5597.76
2026-01-08 18:03:13.600,3932.06,-1340.3600000000001,-1628.16,5015.18,5599.74
2026-01-08 18:03:13.620,3931.68,-1296.08,-1627.48,5014.04,5601.72
2026-01-08 18:03:13.640,3931.3,-1251.8,-1626.8,5012.9,5603.7
2026-01-08 18:03:13.660,3930.92,-1207.52,-1626.12,5011.76,5605.68
2026-01-08 18:03:13.680,3930.54,-1163.24,-1625.44,5010.62,5607.66
2026-01-08 18:03:13.700,3930.16,-1118.96,-1624.76,5009.48,5609.64
2026-01-08 18:03:13.720,3929.78,-1074.6799999999998,-1624.08,5008.34,5611.62
2026-01-08 18:03:13.740,3929.4,-1030.4,-1623.4,5007.2,5613.6
2026-01-08 18:03:13.760,3929.02,-986.12,-1622.72,5006.06,5615.58
2026-01-08 18:03:13.780,3928.64,-941.8399999999999,-1622.04,5004.92,5617.56
2026-01-08 18:03:13.800,3928.26,-897.56,-1621.36,5003.78,5619.54
2026-01-08 18:03:13.820,3927.88,-853.28,-1620.68,5002.64,5621.52
2026-01-08 18:03:13.840,3927.5,-809.0,-1620.0,5001.5,5623.5
2026-01-08 18:03:13.860,3927.12,-764.72,-1619.32,5000.36,5625.48
2026-01-08 18:03:13.880,3926.74,-720.44,-1618.64,4999.22,5627.46
2026-01-08 18:03:13.900,3926.36,-676.1599999999999,-1617.96,4998.08,5629.44
2026-01-08 18:03:13.920,3925.98,-631.8799999999999,-1617.28,4996.94,5631.42
2026-01-08 18:03:13.940,3925.6,-587.5999999999999,-1616.6,4995.8,5633.4
2026-01-08 18:03:13.960,3925.22,-543.3199999999999,-1615.92,4994.66,5635.38
2026-01-08 18:03:13.980,3924.84,-499.03999999999996,-1615.24,4993.52,5637.36
2026-01-08 18:03:14.000,3924.46,-454.76,-1614.56,4992.38,5639.34
2026-01-08 18:03:14.020,3924.08,-410.48,-1613.88,4991.24,5641.32
2026-01-08 18:03:14.040,3923.7,-366.20000000000005,-1613.2,4990.1,5643.3
2026-01-08 18:03:14.060,3923.32,-321.9200000000001,-1612.52,4988.96,5645.28
2026-01-08 18:03:14.080,3922.94,-277.6399999999999,-1611.84,4987.82,5647.26
2026-01-08 18:03:14.100,3922.56,-233.3599999999999,-1611.16,4986.68,5649.24
2026-01-08 18:03:14.120,3922.18,-189.07999999999993,-1610.48,4985.54,5651.22
2026-01-08 18:03:14.140,3921.8,-144.79999999999995,-1609.8,4984.4,5653.2
2026-01-08 18:03:14.160,3921.42,-100.51999999999998,-1609.12,4983.26,5655.18
2026-01-08 18:03:14.180,3921.04,-56.24000000000001,-1608.44,4982.12,5657.16
2026-01-08 18:03:14.200,3920.66,-11.960000000000036,-1607.76,4980.98,5659.14
2026-01-08 18:03:14.220,3920.28,32.320000000000164,-1607.08,4979.84,5661.12
2026-01-08 18:03:14.240,3919.9,76.60000000000014,-1606.4,4978.7,5663.1
2026-01-08 18:03:14.260,3919.52,120.88000000000011,-1605.72,4977.56,5665.08
2026-01-08 18:03:14.280,3919.14,165.15999999999985,-1605.04,4976.42,5667.06
2026-01-08 18:03:14.300,3918.76,209.44000000000005,-1604.36,4975.28,5669.04
2026-01-08 18:03:14.320,3918.38,253.72000000000025,-1603.68,4974.14,5671.02
2026-01-08 18:03:14.340,3918.0,298.0,-1603.0,4973.0,5673.0
2026-01-08 18:03:14.360,3918.326530612245,253.85714285714286,-1602.5102040816328,4974.285714285715,5673.2040816326535
2026-01-08 18:03:14.380,3918.6530612244896,209.71428571428572,-1602.0204081632653,4975.571428571428,5673.408163265306
2026-01-08 18:03:14.400,3918.9795918367345,165.57142857142856,-1601.530612244898,4976.857142857143,5673.6122448979595
2026-01-08 18:03:14.420,3919.3061224489797,121.42857142857142,-1601.0408163265306,4978.142857142857,5673.816326530612
2026-01-08 18:03:14.440,3919.6326530612246,77.28571428571428,-1600.5510204081634,4979.428571428572,5674.0204081632655
2026-01-08 18:03:14.460,3919.9591836734694,33.14285714285711,-1600.061224489796,4980.714285714285,5674.224489795918
2026-01-08 18:03:14.480,3920.285714285714,-11.0,-1599.5714285714287,4982.0,5674.428571428572
2026-01-08 18:03:14.500,3920.612244897959,-55.14285714285717,-1599.0816326530612,4983.285714285715,5674.632653061224
2026-01-08 18:03:14.520,3920.938775510204,-99.28571428571433,-1598.591836734694,4984.571428571428,5674.836734693878
2026-01-08 18:03:14.540,3921.265306122449,-143.42857142857144,-1598.1020408163265,4985.857142857143,5675.040816326531
2026-01-08 18:03:14.560,3921.591836734694,-187.5714285714286,-1597.6122448979593,4987.142857142857,5675.244897959184
2026-01-08 18:03:14.580,3921.918367346939,-231.71428571428578,-1597.1224489795918,4988.428571428572,5675.448979591837
2026-01-08 18:03:14.600,3922.2448979591836,-275.8571428571429,-1596.6326530612246,4989.714285714285,5675.65306122449
2026-01-08 18:03:14.620,3922.5714285714284,-320.0,-1596.142857142857,4991.0,5675.857142857143
2026-01-08 18:03:14.640,3922.8979591836733,-364.1428571428572,-1595.6530612244899,4992.285714285715,5676.061224489796
2026-01-08 18:03:14.660,3923.2244897959185,-408.28571428571433,-1595.1632653061224,4993.571428571428,5676.265306122449
2026-01-08 18:03:14.680,3923.5510204081634,-452.42857142857144,-1594.6734693877552,4994.857142857143,5676.469387755102
2026-01-08 18:03:14.700,3923.877551020408,-496.57142857142867,-1594.1836734693877,4996.142857142857,5676.673469387755
2026-01-08 18:03:14.720,3924.204081632653,-540.7142857142858,-1593.6938775510205,4997.428571428572,5676.877551020408
2026-01-08 18:03:14.740,3924.530612244898,-584.8571428571429,-1593.204081632653,4998.714285714285,5677.081632653061
2026-01-08 18:03:14.760,3924.8571428571427,-629.0000000000001,-1592.7142857142858,5000.0,5677.285714285715
2026-01-08 18:03:14.780,3925.183673469388,-673.1428571428572,-1592.2244897959183,5001.285714285715,5677.489795918367
2026-01-08 18:03:14.800,3925.5102040816328,-717.2857142857143,-1591.734693877551,5002.571428571428,5677.693877551021
2026-01-08 18:03:14.820,3925.8367346938776,-761.4285714285716,-1591.2448979591836,5003.857142857143,5677.897959183673
2026-01-08 18:03:14.840,3926.1632653061224,-805.5714285714287,-1590.7551020408164,5005.142857142857,5678.102040816327
2026-01-08 18:03:14.860,3926.4897959183672,-849.7142857142858,-1590.265306122449,5006.428571428572,5678.306122448979
2026-01-08 18:03:14.880,3926.816326530612,-893.8571428571429,-1589.7755102040817,5007.714285714285,5678.510204081633
2026-01-08 18:03:14.900,3927.1428571428573,-938.0,-1589.2857142857142,5009.0,5678.714285714285
2026-01-08 18:03:14.920,3927.469387755102,-982.1428571428573,-1588.795918367347,5010.285714285715,5678.918367346939
2026-01-08 18:03:14.940,3927.795918367347,-1026.2857142857144,-1588.3061224489795,5011.571428571428,5679.122448979592
2026-01-08 18:03:14.960,3928.122448979592,-1070.4285714285716,-1587.8163265306123,5012.857142857143,5679.326530612245
2026-01-08 18:03:14.980,3928.4489795918366,-1114.5714285714287,-1587.3265306122448,5014.142857142857,5679.530612244898
2026-01-08 18:03:15.000,3928.7755102040815,-1158.7142857142858,-1586.8367346938776,5015.428571428572,5679.734693877551
2026-01-08 18:03:15.020,3929.1020408163267,-1202.857142857143,-1586.3469387755101,5016.714285714285,5679.938775510204
2026-01-08 18:03:15.040,3929.4285714285716,-1247.0,-1585.857142857143,5018.0,5680.142857142857
2026-01-08 18:03:15.060,3929.7551020408164,-1291.1428571428573,-1585.3673469387754,5019.285714285715,5680.34693877551
2026-01-08 18:03:15.080,3930.081632653061,-1335.2857142857144,-1584.8775510204082,5020.571428571428,5680.551020408163
2026-01-08 18:03:15.100,3930.408163265306,-1379.4285714285716,-1584.3877551020407,5021.857142857143,5680.755102040816
2026-01-08 18:03:15.120,3930.734693877551,-1423.5714285714287,-1583.8979591836735,5023.142857142857,5680.959183673469
2026-01-08 18:03:15.140,3931.061224489796,-1467.7142857142858,-1583.408163265306,5024.428571428572,5681.163265306122
2026-01-08 18:03:15.160,3931.387755102041,-1511.857142857143,-1582.9183673469388,5025.714285714285,5681.367346938776
2026-01-08 18:03:15.180,3931.714285714286,-1556.0000000000002,-1582.4285714285713,5027.0,5681.571428571428
2026-01-08 18:03:15.200,3932.0408163265306,-1600.1428571428573,-1581.938775510204,5028.285714285715,5681.775510204082
2026-01-08 18:03:15.220,3932.3673469387754,-1644.2857142857144,-1581.4489795918366,5029.571428571428,5681.9795918367345
2026-01-08 18:03:15.240,3932.6938775510203,-1688.4285714285716,-1580.9591836734694,5030.857142857143,5682.183673469388
2026-01-08 18:03:15.260,3933.0204081632655,-1732.5714285714287,-1580.469387755102,5032.142857142857,5682.3877551020405
2026-01-08 18:03:15.280,3933.3469387755104,-1776.7142857142858,-1579.9795918367347,5033.428571428572,5682.591836734694
2026-01-08 18:03:15.300,3933.673469387755,-1820.8571428571431,-1579.4897959183672,5034.714285714285,5682.7959183673465
2026-01-08 18:03:15.320,3934.0,-1865.0,-1579.0,5036.0,5683.0
2026-01-08 18:03:15.340,3933.98,-1865.34,-1579.38,5036.0,5682.66
2026-01-08 18:03:15.360,3933.96,-1865.68,-1579.76,5036.0,5682.32
2026-01-08 18:03:15.380,3933.94,-1866.02,-1580.14,5036.0,5681.98
2026-01-08 18:03:15.400,3933.92,-1866.36,-1580.52,5036.0,5681.64
2026-01-08 18:03:15.420,3933.9,-1866.7,-1580.9,5036.0,5681.3
2026-01-08 18:03:15.440,3933.88,-1867.04,-1581.28,5036.0,5680.96
2026-01-08 18:03:15.460,3933.86,-1867.38,-1581.66,5036.0,5680.62
2026-01-08 18:03:15.480,3933.84,-1867.72,-1582.04,5036.0,5680.28
2026-01-08 18:03:15.500,3933.82,-1868.06,-1582.42,5036.0,5679.94
2026-01-08 18:03:15.520,3933.8,-1868.4,-1582.8,5036.0,5679.6
2026-01-08 18:03:15.540,3933.78,-1868.74,-1583.18,5036.0,5679.26
2026-01-08 18:03:15.560,3933.76,-1869.08,-1583.56,5036.0,5678.92
2026-01-08 18:03:15.580,3933.74,-1869.42,-1583.94,5036.0,5678.58
2026-01-08 18:03:15.600,3933.72,-1869.76,-1584.32,5036.0,5678.24
2026-01-08 18:03:15.620,3933.7,-1870.1,-1584.7,5036.0,5677.9
2026-01-08 18:03:15.640,3933.68,-1870.44,-1585.08,5036.0,5677.56
2026-01-08 18:03:15.660,3933.66,-1870.78,-1585.46,5036.0,5677.22
2026-01-08 18:03:15.680,3933.64,-1871.12,-1585.84,5036.0,5676.88
2026-01-08 18:03:15.700,3933.62,-1871.46,-1586.22,5036.0,5676.54
2026-01-08 18:03:15.720,3933.6,-1871.8,-1586.6,5036.0,5676.2
2026-01-08 18:03:15.740,3933.58,-1872.14,-1586.98,5036.0,5675.86
2026-01-08 18:03:15.760,3933.56,-1872.48,-1587.36,5036.0,5675.52
2026-01-08 18:03:15.780,3933.54,-1872.82,-1587.74,5036.0,5675.18
2026-01-08 18:03:15.800,3933.52,-1873.16,-1588.12,5036.0,5674.84
2026-01-08 18:03:15.820,3933.5,-1873.5,-1588.5,5036.0,5674.5
2026-01-08 18:03:15.840,3933.48,-1873.84,-1588.88,5036.0,5674.16
2026-01-08 18:03:15.860,3933.46,-1874.18,-1589.26,5036.0,5673.82
2026-01-08 18:03:15.880,3933.44,-1874.52,-1589.64,5036.0,5673.48
2026-01-08 18:03:15.900,3933.42,-1874.86,-1590.02,5036.0,5673.14
2026-01-08 18:03:15.920,3933.4,-1875.2,-1590.4,5036.0,5672.8
2026-01-08 18:03:15.940,3933.38,-1875.54,-1590.78,5036.0,5672.46
2026-01-08 18:03:15.960,3933.36,-1875.88,-1591.16,5036.0,5672.12
2026-01-08 18:03:15.980,3933.34,-1876.22,-1591.54,5036.0,5671.78
2026-01-08 18:03:16.000,3933.32,-1876.56,-1591.92,5036.0,5671.44
2026-01-08 18:03:16.020,3933.3,-1876.9,-1592.3,5036.0,5671.1
2026-01-08 18:03:16.040,3933.28,-1877.24,-1592.68,5036.0,5670.76
2026-01-08 18:03:16.060,3933.26,-1877.58,-1593.06,5036.0,5670.42
2026-01-08 18:03:16.080,3933.24,-1877.92,-1593.44,5036.0,5670.08
2026-01-08 18:03:16.100,3933.22,-1878.26,-1593.82,5036.0,5669.74
2026-01-08 18:03:16.120,3933.2,-1878.6,-1594.2,5036.0,5669.4
2026-01-08 18:03:16.140,3933.18,-1878.94,-1594.58,5036.0,5669.06
2026-01-08 18:03:16.160,3933.16,-1879.28,-1594.96,5036.0,5668.72
2026-01-08 18:03:16.180,3933.14,-1879.62,-1595.34,5036.0,5668.38
2026-01-08 18:03:16.200,3933.12,-1879.96,-1595.72,5036.0,5668.04
2026-01-08 18:03:16.220,3933.1,-1880.3,-1596.1,5036.0,5667.7
2026-01-08 18:03:16.240,3933.08,-1880.64,-1596.48,5036.0,5667.36
2026-01-08 18:03:16.260,3933.06,-1880.98,-1596.86,5036.0,5667.02
2026-01-08 18:03:16.280,3933.04,-1881.32,-1597.24,5036.0,5666.68
2026-01-08 18:03:16.300,3933.02,-1881.66,-1597.62,5036.0,5666.34
2026-01-08 18:03:16.320,3933.0,-1882.0,-1598.0,5036.0,5666.0
2026-01-08 18:03:16.340,3932.529411764706,-1839.0588235294117,-1559.764705882353,5036.803921568628,5666.392156862745
2026-01-08 18:03:16.360,3932.0588235294117,-1796.1176470588234,-1521.5294117647059,5037.607843137255,5666.78431372549
2026-01-08 18:03:16.380,3931.5882352941176,-1753.1764705882354,-1483.2941176470588,5038.411764705882,5667.176470588235
2026-01-08 18:03:16.400,3931.1176470588234,-1710.235294117647,-1445.0588235294117,5039.21568627451,5667.568627450981
2026-01-08 18:03:16.420,3930.6470588235293,-1667.2941176470588,-1406.8235294117646,5040.019607843137,5667.9607843137255
2026-01-08 18:03:16.440,3930.176470588235,-1624.3529411764707,-1368.5882352941176,5040.823529411765,5668.35294117647
2026-01-08 18:03:16.460,3929.705882352941,-1581.4117647058824,-1330.3529411764707,5041.6274509803925,5668.745098039216
2026-01-08 18:03:16.480,3929.235294117647,-1538.4705882352941,-1292.1176470588234,5042.431372549019,5669.137254901961
2026-01-08 18:03:16.500,3928.764705882353,-1495.5294117647059,-1253.8823529411766,5043.235294117647,5669.529411764706
2026-01-08 18:03:16.520,3928.294117647059,-1452.5882352941176,-1215.6470588235293,5044.0392156862745,5669.921568627451
2026-01-08 18:03:16.540,3927.823529411765,-1409.6470588235295,-1177.4117647058824,5044.843137254902,5670.313725490196
2026-01-08 18:03:16.560,3927.3529411764707,-1366.7058823529412,-1139.1764705882354,5045.64705882353,5670.705882352941
2026-01-08 18:03:16.580,3926.8823529411766,-1323.764705882353,-1100.9411764705883,5046.450980392156,5671.098039215686
2026-01-08 18:03:16.600,3926.4117647058824,-1280.8235294117649,-1062.7058823529412,5047.254901960784,5671.490196078431
2026-01-08 18:03:16.620,3925.9411764705883,-1237.8823529411766,-1024.4705882352941,5048.058823529412,5671.882352941177
2026-01-08 18:03:16.640,3925.470588235294,-1194.9411764705883,-986.2352941176471,5048.862745098039,5672.274509803921
2026-01-08 18:03:16.660,3925.0,-1152.0,-948.0,5049.666666666667,5672.666666666667
2026-01-08 18:03:16.680,3924.529411764706,-1109.0588235294117,-909.7647058823529,5050.470588235294,5673.058823529412
2026-01-08 18:03:16.700,3924.0588235294117,-1066.1176470588236,-871.5294117647059,5051.274509803921,5673.450980392156
2026-01-08 18:03:16.720,3923.5882352941176,-1023.1764705882354,-833.2941176470588,5052.078431372549,5673.843137254902
2026-01-08 18:03:16.740,3923.1176470588234,-980.2352941176471,-795.0588235294118,5052.882352941177,5674.235294117647
2026-01-08 18:03:16.760,3922.6470588235293,-937.2941176470589,-756.8235294117648,5053.686274509804,5674.6274509803925
2026-01-08 18:03:16.780,3922.176470588235,-894.3529411764707,-718.5882352941177,5054.490196078431,5675.019607843137
2026-01-08 18:03:16.800,3921.705882352941,-851.4117647058824,-680.3529411764706,5055.294117647059,5675.411764705882
2026-01-08 18:03:16.820,3921.235294117647,-808.4705882352941,-642.1176470588235,5056.098039215686,5675.803921568628
2026-01-08 18:03:16.840,3920.764705882353,-765.5294117647059,-603.8823529411765,5056.901960784314,5676.196078431372
2026-01-08 18:03:16.860,3920.294117647059,-722.5882352941178,-565.6470588235295,5057.705882352941,5676.588235294118
2026-01-08 18:03:16.880,3919.823529411765,-679.6470588235295,-527.4117647058824,5058.509803921569,5676.980392156863
2026-01-08 18:03:16.900,3919.3529411764707,-636.7058823529412,-489.17647058823536,5059.313725490196,5677.3725490196075
2026-01-08 18:03:16.920,3918.8823529411766,-593.7647058823532,-450.9411764705883,5060.117647058823,5677.764705882353
2026-01-08 18:03:16.940,3918.4117647058824,-550.8235294117649,-412.7058823529412,5060.921568627451,5678.156862745098
2026-01-08 18:03:16.960,3917.9411764705883,-507.8823529411766,-374.47058823529414,5061.725490196079,5678.549019607844
2026-01-08 18:03:16.980,3917.470588235294,-464.9411764705883,-336.2352941176471,5062.529411764706,5678.941176470588
2026-01-08 18:03:17.000,3917.0,-422.0,-298.0,5063.333333333333,5679.333333333333
2026-01-08 18:03:17.020,3916.529411764706,-379.05882352941194,-259.7647058823529,5064.137254901961,5679.725490196079
2026-01-08 18:03:17.040,3916.0588235294117,-336.11764705882365,-221.52941176470586,5064.941176470588,5680.117647058823
2026-01-08 18:03:17.060,3915.5882352941176,-293.17647058823536,-183.29411764705878,5065.745098039216,5680.509803921569
2026-01-08 18:03:17.080,3915.1176470588234,-250.2352941176473,-145.0588235294117,5066.549019607844,5680.901960784314
2026-01-08 18:03:17.100,3914.6470588235293,-207.294117647059,-106.82352941176464,5067.35294117647,5681.294117647059
2026-01-08 18:03:17.120,3914.176470588235,-164.35294117647072,-68.58823529411757,5068.156862745098,5681.686274509804
2026-01-08 18:03:17.140,3913.705882352941,-121.41176470588243,-30.352941176470722,5068.9607843137255,5682.078431372549
2026-01-08 18:03:17.160,3913.235294117647,-78.47058823529414,7.88235294117635,5069.764705882353,5682.470588235294
2026-01-08 18:03:17.180,3912.764705882353,-35.52941176470608,46.11764705882342,5070.568627450981,5682.862745098039
2026-01-08 18:03:17.200,3912.294117647059,7.411764705882206,84.3529411764705,5071.3725490196075,5683.254901960784
2026-01-08 18:03:17.220,3911.823529411765,50.352941176470495,122.58823529411757,5072.176470588235,5683.64705882353
2026-01-08 18:03:17.240,3911.3529411764707,93.29411764705856,160.82352941176464,5072.980392156863,5684.0392156862745
2026-01-08 18:03:17.260,3910.8823529411766,136.23529411764684,199.0588235294117,5073.78431372549,5684.431372549019
2026-01-08 18:03:17.280,3910.4117647058824,179.17647058823513,237.29411764705878,5074.588235294118,5684.823529411765
2026-01-08 18:03:17.300,3909.9411764705883,222.11764705882342,275.52941176470586,5075.392156862745,5685.21568627451
2026-01-08 18:03:17.320,3909.470588235294,265.0588235294117,313.7647058823529,5076.196078431372,5685.607843137255
2026-01-08 18:03:17.340,3909.0,308.0,352.0,5077.0,5686.0
2026-01-08 18:03:17.360,3907.740740740741,272.2962962962963,315.77777777777777,5075.8,5685.98
2026-01-08 18:03:17.380,3906.4814814814813,236.5925925925926,279.55555555555554,5074.6,5685.96
2026-01-08 18:03:17.400,3905.222222222222,200.88888888888889,243.33333333333334,5073.4,5685.94
2026-01-08 18:03:17.420,3903.962962962963,165.1851851851852,207.11111111111111,5072.2,5685.92
2026-01-08 18:03:17.440,3902.703703703704,129.4814814814815,170.88888888888889,5071.0,5685.9
2026-01-08 18:03:17.460,3901.4444444444443,93.77777777777777,134.66666666666669,5069.8,5685.88
2026-01-08 18:03:17.480,3900.185185185185,58.074074074074076,98.44444444444446,5068.6,5685.86
2026-01-08 18:03:17.500,3898.925925925926,22.37037037037038,62.22222222222223,5067.4,5685.84
2026-01-08 18:03:17.520,3897.6666666666665,-13.333333333333314,26.0,5066.2,5685.82
2026-01-08 18:03:17.540,3896.4074074074074,-49.03703703703701,-10.222222222222229,5065.0,5685.8
2026-01-08 18:03:17.560,3895.1481481481483,-84.7407407407407,-46.44444444444446,5063.8,5685.78
2026-01-08 18:03:17.580,3893.8888888888887,-120.44444444444446,-82.66666666666663,5062.6,5685.76
2026-01-08 18:03:17.600,3892.6296296296296,-156.14814814814815,-118.88888888888886,5061.4,5685.74
2026-01-08 18:03:17.620,3891.3703703703704,-191.85185185185185,-155.1111111111111,5060.2,5685.72
2026-01-08 18:03:17.640,3890.1111111111113,-227.55555555555554,-191.33333333333337,5059.0,5685.7
2026-01-08 18:03:17.660,3888.8518518518517,-263.25925925925924,-227.55555555555554,5057.8,5685.68
2026-01-08 18:03:17.680,3887.5925925925926,-298.96296296296293,-263.7777777777777,5056.6,5685.66
2026-01-08 18:03:17.700,3886.3333333333335,-334.66666666666663,-300.0,5055.4,5685.64
2026-01-08 18:03:17.720,3885.074074074074,-370.3703703703703,-336.2222222222222,5054.2,5685.62
2026-01-08 18:03:17.740,3883.814814814815,-406.074074074074,-372.44444444444446,5053.0,5685.6
2026-01-08 18:03:17.760,3882.5555555555557,-441.7777777777777,-408.66666666666663,5051.8,5685.58
2026-01-08 18:03:17.780,3881.296296296296,-477.4814814814814,-444.8888888888889,5050.6,5685.56
2026-01-08 18:03:17.800,3880.037037037037,-513.1851851851851,-481.1111111111111,5049.4,5685.54
2026-01-08 18:03:17.820,3878.777777777778,-548.8888888888889,-517.3333333333333,5048.2,5685.52
2026-01-08 18:03:17.840,3877.5185185185187,-584.5925925925926,-553.5555555555555,5047.0,5685.5
2026-01-08 18:03:17.860,3876.259259259259,-620.2962962962963,-589.7777777777777,5045.8,5685.48
2026-01-08 18:03:17.880,3875.0,-656.0,-626.0,5044.6,5685.46
2026-01-08 18:03:17.900,3873.740740740741,-691.7037037037037,-662.2222222222222,5043.4,5685.44
2026-01-08 18:03:17.920,3872.4814814814813,-727.4074074074074,-698.4444444444443,5042.2,5685.42
2026-01-08 18:03:17.940,3871.222222222222,-763.1111111111111,-734.6666666666667,5041.0,5685.4
2026-01-08 18:03:17.960,3869.962962962963,-798.8148148148148,-770.8888888888889,5039.8,5685.38
2026-01-08 18:03:17.980,3868.703703703704,-834.5185185185185,-807.1111111111111,5038.6,5685.36
2026-01-08 18:03:18.000,3867.4444444444443,-870.2222222222222,-843.3333333333333,5037.4,5685.34
2026-01-08 18:03:18.020,3866.185185185185,-905.9259259259259,-879.5555555555554,5036.2,5685.32
2026-01-08 18:03:18.040,3864.925925925926,-941.6296296296296,-915.7777777777778,5035.0,5685.3
2026-01-08 18:03:18.060,3863.6666666666665,-977.3333333333333,-952.0,5033.8,5685.28
2026-01-08 18:03:18.080,3862.4074074074074,-1013.037037037037,-988.2222222222222,5032.6,5685.26
2026-01-08 18:03:18.100,3861.1481481481483,-1048.7407407407406,-1024.4444444444443,5031.4,5685.24
2026-01-08 18:03:18.120,3859.8888888888887,-1084.4444444444443,-1060.6666666666667,5030.2,5685.22
2026-01-08 18:03:18.140,3858.6296296296296,-1120.148148148148,-1096.888888888889,5029.0,5685.2
2026-01-08 18:03:18.160,3857.3703703703704,-1155.8518518518517,-1133.111111111111,5027.8,5685.18
2026-01-08 18:03:18.180,3856.1111111111113,-1191.5555555555554,-1169.3333333333333,5026.6,5685.16
2026-01-08 18:03:18.200,3854.8518518518517,-1227.2592592592591,-1205.5555555555554,5025.4,5685.14
2026-01-08 18:03:18.220,3853.5925925925926,-1262.9629629629628,-1241.7777777777778,5024.2,5685.12
2026-01-08 18:03:18.240,3852.3333333333335,-1298.6666666666665,-1278.0,5023.0,5685.1
2026-01-08 18:03:18.260,3851.074074074074,-1334.3703703703702,-1314.2222222222222,5021.8,5685.08
2026-01-08 18:03:18.280,3849.814814814815,-1370.074074074074,-1350.4444444444443,5020.6,5685.06
2026-01-08 18:03:18.300,3848.5555555555557,-1405.7777777777778,-1386.6666666666665,5019.4,5685.04
2026-01-08 18:03:18.320,3847.296296296296,-1441.4814814814815,-1422.888888888889,5018.2,5685.02
2026-01-08 18:03:18.340,3846.037037037037,-1477.1851851851852,-1459.111111111111,5017.0,5685.0
2026-01-08 18:03:18.360,3844.777777777778,-1512.888888888889,-1495.3333333333333,5017.591836734694,5685.142857142857
2026-01-08 18:03:18.380,3843.5185185185187,-1548.5925925925926,-1531.5555555555554,5018.183673469388,5685.285714285715
2026-01-08 18:03:18.400,3842.259259259259,-1584.2962962962963,-1567.7777777777778,5018.775510204082,5685.428571428572
2026-01-08 18:03:18.420,3841.0,-1620.0,-1604.0,5019.367346938776,5685.571428571428
2026-01-08 18:03:18.440,3798.911111111111,-1582.4666666666667,-1603.9555555555555,5019.959183673469,5685.714285714285
2026-01-08 18:03:18.460,3756.822222222222,-1544.9333333333334,-1603.911111111111,5020.551020408163,5685.857142857143
2026-01-08 18:03:18.480,3714.733333333333,-1507.4,-1603.8666666666666,5021.142857142857,5686.0
2026-01-08 18:03:18.500,3672.6444444444446,-1469.8666666666668,-1603.8222222222223,5021.734693877551,5686.142857142857
2026-01-08 18:03:18.520,3630.5555555555557,-1432.3333333333333,-1603.7777777777778,5022.326530612245,5686.285714285715
2026-01-08 18:03:18.540,3588.4666666666667,-1394.8,-1603.7333333333333,5022.918367346939,5686.428571428572
2026-01-08 18:03:18.560,3546.3777777777777,-1357.2666666666667,-1603.6888888888889,5023.510204081633,5686.571428571428
2026-01-08 18:03:18.580,3504.288888888889,-1319.7333333333333,-1603.6444444444444,5024.102040816327,5686.714285714285
2026-01-08 18:03:18.600,3462.2,-1282.2,-1603.6,5024.693877551021,5686.857142857143
2026-01-08 18:03:18.620,3420.1111111111113,-1244.6666666666667,-1603.5555555555557,5025.285714285715,5687.0
2026-01-08 18:03:18.640,3378.0222222222224,-1207.1333333333332,-1603.5111111111112,5025.877551020408,5687.142857142857
2026-01-08 18:03:18.660,3335.9333333333334,-1169.6,-1603.4666666666667,5026.469387755102,5687.285714285715
2026-01-08 18:03:18.680,3293.8444444444444,-1132.0666666666666,-1603.4222222222222,5027.061224489796,5687.428571428572
2026-01-08 18:03:18.700,3251.7555555555555,-1094.5333333333333,-1603.3777777777777,5027.65306122449,5687.571428571428
2026-01-08 18:03:18.720,3209.6666666666665,-1057.0,-1603.3333333333333,5028.244897959184,5687.714285714285
2026-01-08 18:03:18.740,3167.5777777777776,-1019.4666666666667,-1603.2888888888888,5028.836734693878,5687.857142857143
2026-01-08 18:03:18.760,3125.488888888889,-981.9333333333334,-1603.2444444444445,5029.428571428572,5688.0
2026-01-08 18:03:18.780,3083.4,-944.4000000000001,-1603.2,5030.0204081632655,5688.142857142857
2026-01-08 18:03:18.800,3041.311111111111,-906.8666666666667,-1603.1555555555556,5030.6122448979595,5688.285714285715
2026-01-08 18:03:18.820,2999.222222222222,-869.3333333333334,-1603.111111111111,5031.2040816326535,5688.428571428572
2026-01-08 18:03:18.840,2957.133333333333,-831.8000000000001,-1603.0666666666666,5031.7959183673465,5688.571428571428
2026-01-08 18:03:18.860,2915.0444444444447,-794.2666666666667,-1603.0222222222221,5032.3877551020405,5688.714285714285
2026-01-08 18:03:18.880,2872.9555555555553,-756.7333333333333,-1602.9777777777779,5032.9795918367345,5688.857142857143
2026-01-08 18:03:18.900,2830.866666666667,-719.2,-1602.9333333333334,5033.571428571428,5689.0
2026-01-08 18:03:18.920,2788.777777777778,-681.6666666666667,-1602.888888888889,5034.163265306122,5689.142857142857
2026-01-08 18:03:18.940,2746.688888888889,-644.1333333333334,-1602.8444444444444,5034.755102040816,5689.285714285715
2026-01-08 18:03:18.960,2704.6,-606.6,-1602.8,5035.34693877551,5689.428571428572
2026-01-08 18:03:18.980,2662.511111111111,-569.0666666666666,-1602.7555555555555,5035.938775510204,5689.571428571428
2026-01-08 18:03:19.000,2620.4222222222224,-531.5333333333333,-1602.7111111111112,5036.530612244898,5689.714285714285
2026-01-08 18:03:19.020,2578.333333333333,-494.0,-1602.6666666666667,5037.122448979592,5689.857142857143
2026-01-08 18:03:19.040,2536.2444444444445,-456.4666666666667,-1602.6222222222223,5037.714285714285,5690.0
2026-01-08 18:03:19.060,2494.1555555555556,-418.9333333333334,-1602.5777777777778,5038.306122448979,5690.142857142857
2026-01-08 18:03:19.080,2452.0666666666666,-381.4000000000001,-1602.5333333333333,5038.897959183673,5690.285714285715
2026-01-08 18:03:19.100,2409.977777777778,-343.8666666666668,-1602.4888888888888,5039.489795918367,5690.428571428572
2026-01-08 18:03:19.120,2367.8888888888887,-306.3333333333335,-1602.4444444444443,5040.081632653061,5690.571428571428
2026-01-08 18:03:19.140,2325.8,-268.8000000000002,-1602.4,5040.673469387755,5690.714285714285
2026-01-08 18:03:19.160,2283.711111111111,-231.26666666666665,-1602.3555555555556,5041.265306122449,5690.857142857143
2026-01-08 18:03:19.180,2241.6222222222223,-193.73333333333335,-1602.3111111111111,5041.857142857143,5691.0
2026-01-08 18:03:19.200,2199.5333333333333,-156.20000000000005,-1602.2666666666667,5042.448979591837,5691.142857142857
2026-01-08 18:03:19.220,2157.4444444444443,-118.66666666666674,-1602.2222222222222,5043.040816326531,5691.285714285715
2026-01-08 18:03:19.240,2115.355555555556,-81.13333333333344,-1602.1777777777777,5043.632653061224,5691.428571428572
2026-01-08 18:03:19.260,2073.2666666666664,-43.600000000000136,-1602.1333333333334,5044.224489795918,5691.571428571428
2026-01-08 18:03:19.280,2031.1777777777777,-6.066666666666833,-1602.088888888889,5044.816326530612,5691.714285714285
2026-01-08 18:03:19.300,1989.088888888889,31.466666666666697,-1602.0444444444445,5045.408163265306,5691.857142857143
2026-01-08 18:03:19.320,1947.0,69.0,-1602.0,5046.0,5692.0
2026-01-08 18:03:19.340,1985.02,30.299999999999997,-1600.82,5045.4,5692.38
2026-01-08 18:03:19.360,2023.04,-8.400000000000006,-1599.64,5044.8,5692.76
2026-01-08 18:03:19.380,2061.06,-47.10000000000001,-1598.46,5044.2,5693.14
2026-01-08 18:03:19.400,2099.08,-85.80000000000001,-1597.28,5043.6,5693.52
2026-01-08 18:03:19.420,2137.1,-124.5,-1596.1,5043.0,5693.9
2026-01-08 18:03:19.440,2175.12,-163.20000000000002,-1594.92,5042.4,5694.28
2026-01-08 18:03:19.460,2213.14,-201.90000000000003,-1593.74,5041.8,5694.66
2026-01-08 18:03:19.480,2251.16,-240.60000000000002,-1592.56,5041.2,5695.04
2026-01-08 18:03:19.500,2289.18,-279.3,-1591.38,5040.6,5695.42
2026-01-08 18:03:19.520,2327.2,-318.0,-1590.2,5040.0,5695.8
2026-01-08 18:03:19.540,2365.2200000000003,-356.70000000000005,-1589.02,5039.4,5696.18
2026-01-08 18:03:19.560,2403.24,-395.40000000000003,-1587.84,5038.8,5696.56
2026-01-08 18:03:19.580,2441.26,-434.1,-1586.66,5038.2,5696.94
2026-01-08 18:03:19.600,2479.28,-472.80000000000007,-1585.48,5037.6,5697.32
2026-01-08 18:03:19.620,2517.3,-511.5,-1584.3,5037.0,5697.7
2026-01-08 18:03:19.640,2555.32,-550.2,-1583.12,5036.4,5698.08
2026-01-08 18:03:19.660,2593.34,-588.9000000000001,-1581.94,5035.8,5698.46
2026-01-08 18:03:19.680,2631.36,-627.6,-1580.76,5035.2,5698.84
2026-01-08 18:03:19.700,2669.38,-666.3000000000001,-1579.58,5034.6,5699.22
2026-01-08 18:03:19.720,2707.4,-705.0,-1578.4,5034.0,5699.6
2026-01-08 18:03:19.740,2745.42,-743.7,-1577.22,5033.4,5699.98
2026-01-08 18:03:19.760,2783.44,-782.4000000000001,-1576.04,5032.8,5700.36
2026-01-08 18:03:19.780,2821.46,-821.1,-1574.86,5032.2,5700.74
2026-01-08 18:03:19.800,2859.48,-859.8000000000001,-1573.68,5031.6,5701.12
2026-01-08 18:03:19.820,2897.5,-898.5000000000001,-1572.5,5031.0,5701.5
2026-01-08 18:03:19.840,2935.52,-937.2,-1571.32,5030.4,5701.88
2026-01-08 18:03:19.860,2973.54,-975.9000000000001,-1570.14,5029.8,5702.26
2026-01-08 18:03:19.880,3011.5600000000004,-1014.6000000000001,-1568.96,5029.2,5702.64
2026-01-08 18:03:19.900,3049.58,-1053.3000000000002,-1567.78,5028.6,5703.02
2026-01-08 18:03:19.920,3087.6000000000004,-1092.0,-1566.6,5028.0,5703.4
2026-01-08 18:03:19.940,3125.62,-1130.7,-1565.42,5027.4,5703.78
2026-01-08 18:03:19.960,3163.6400000000003,-1169.4,-1564.24,5026.8,5704.16
2026-01-08 18:03:19.980,3201.66,-1208.1000000000001,-1563.06,5026.2,5704.54
2026-01-08 18:03:20.000,3239.6800000000003,-1246.8000000000002,-1561.88,5025.6,5704.92
2026-01-08 18:03:20.020,3277.7,-1285.5,-1560.7,5025.0,5705.3
2026-01-08 18:03:20.040,3315.7200000000003,-1324.2,-1559.52,5024.4,5705.68
2026-01-08 18:03:20.060,3353.74,-1362.9,-1558.34,5023.8,5706.06
2026-01-08 18:03:20.080,3391.76,-1401.6000000000001,-1557.16,5023.2,5706.44
2026-01-08 18:03:20.100,3429.78,-1440.3000000000002,-1555.98,5022.6,5706.82
2026-01-08 18:03:20.120,3467.8,-1479.0,-1554.8,5022.0,5707.2
2026-01-08 18:03:20.140,3505.82,-1517.7,-1553.62,5021.4,5707.58
2026-01-08 18:03:20.160,3543.84,-1556.4,-1552.44,5020.8,5707.96
2026-01-08 18:03:20.180,3581.86,-1595.1000000000001,-1551.26,5020.2,5708.34
2026-01-08 18:03:20.200,3619.88,-1633.8000000000002,-1550.08,5019.6,5708.72
2026-01-08 18:03:20.220,3657.9,-1672.5000000000002,-1548.9,5019.0,5709.1
2026-01-08 18:03:20.240,3695.92,-1711.2,-1547.72,5018.4,5709.48
2026-01-08 18:03:20.260,3733.94,-1749.9,-1546.54,5017.8,5709.86
2026-01-08 18:03:20.280,3771.96,-1788.6000000000001,-1545.36,5017.2,5710.24
2026-01-08 18:03:20.300,3809.9800000000005,-1827.3000000000002,-1544.18,5016.6,5710.62
2026-01-08 18:03:20.320,3848.0,-1866.0,-1543.0,5016.0,5711.0
2026-01-08 18:03:20.340,3774.1346153846152,-1791.9423076923076,-1543.5192307692307,5016.288461538462,5710.755102040816
2026-01-08 18:03:20.360,3700.269230769231,-1717.8846153846155,-1544.0384615384614,5016.576923076923,5710.510204081633
2026-01-08 18:03:20.380,3626.403846153846,-1643.826923076923,-1544.5576923076924,5016.865384615385,5710.265306122449
2026-01-08 18:03:20.400,3552.5384615384614,-1569.7692307692307,-1545.076923076923,5017.153846153846,5710.0204081632655
2026-01-08 18:03:20.420,3478.673076923077,-1495.7115384615386,-1545.5961538461538,5017.442307692308,5709.775510204082
2026-01-08 18:03:20.440,3404.8076923076924,-1421.6538461538462,-1546.1153846153845,5017.7307692307695,5709.530612244898
2026-01-08 18:03:20.460,3330.9423076923076,-1347.5961538461538,-1546.6346153846155,5018.0192307692305,5709.285714285715
2026-01-08 18:03:20.480,3257.076923076923,-1273.5384615384614,-1547.1538461538462,5018.307692307692,5709.040816326531
2026-01-08 18:03:20.500,3183.2115384615386,-1199.4807692307693,-1547.673076923077,5018.596153846154,5708.7959183673465
2026-01-08 18:03:20.520,3109.346153846154,-1125.423076923077,-1548.1923076923076,5018.884615384615,5708.551020408163
2026-01-08 18:03:20.540,3035.4807692307695,-1051.3653846153848,-1548.7115384615386,5019.173076923077,5708.306122448979
2026-01-08 18:03:20.560,2961.6153846153848,-977.3076923076924,-1549.2307692307693,5019.461538461538,5708.061224489796
2026-01-08 18:03:20.580,2887.75,-903.25,-1549.75,5019.75,5707.816326530612
2026-01-08 18:03:20.600,2813.8846153846152,-829.1923076923076,-1550.2692307692307,5020.038461538462,5707.571428571428
2026-01-08 18:03:20.620,2740.0192307692305,-755.1346153846155,-1550.7884615384614,5020.326923076923,5707.326530612245
2026-01-08 18:03:20.640,2666.153846153846,-681.0769230769231,-1551.3076923076924,5020.615384615385,5707.081632653061
2026-01-08 18:03:20.660,2592.288461538462,-607.0192307692307,-1551.826923076923,5020.903846153846,5706.836734693878
2026-01-08 18:03:20.680,2518.423076923077,-532.9615384615386,-1552.3461538461538,5021.192307692308,5706.591836734694
2026-01-08 18:03:20.700,2444.5576923076924,-458.9038461538462,-1552.8653846153845,5021.4807692307695,5706.34693877551
2026-01-08 18:03:20.720,2370.6923076923076,-384.8461538461538,-1553.3846153846155,5021.7692307692305,5706.102040816327
2026-01-08 18:03:20.740,2296.826923076923,-310.78846153846166,-1553.9038461538462,5022.057692307692,5705.857142857143
2026-01-08 18:03:20.760,2222.9615384615386,-236.73076923076928,-1554.423076923077,5022.346153846154,5705.6122448979595
2026-01-08 18:03:20.780,2149.096153846154,-162.6730769230769,-1554.9423076923076,5022.634615384615,5705.367346938776
2026-01-08 18:03:20.800,2075.2307692307695,-88.61538461538476,-1555.4615384615386,5022.923076923077,5705.122448979592
2026-01-08 18:03:20.820,2001.3653846153848,-14.557692307692378,-1555.9807692307693,5023.211538461538,5704.877551020408
2026-01-08 18:03:20.840,1927.5,59.5,-1556.5,5023.5,5704.632653061224
2026-01-08 18:03:20.860,1853.6346153846155,133.55769230769238,-1557.0192307692307,5023.788461538462,5704.3877551020405
2026-01-08 18:03:20.880,1779.769230769231,207.61538461538476,-1557.5384615384614,5024.076923076923,5704.142857142857
2026-01-08 18:03:20.900,1705.9038461538462,281.6730769230767,-1558.0576923076924,5024.365384615385,5703.897959183673
2026-01-08 18:03:20.920,1632.0384615384614,355.73076923076906,-1558.576923076923,5024.653846153846,5703.65306122449
2026-01-08 18:03:20.940,1558.1730769230771,429.78846153846143,-1559.0961538461538,5024.942307692308,5703.408163265306
2026-01-08 18:03:20.960,1484.3076923076924,503.8461538461538,-1559.6153846153845,5025.2307692307695,5703.163265306122
2026-01-08 18:03:20.980,1410.4423076923076,577.9038461538462,-1560.1346153846155,5025.5192307692305,5702.918367346939
2026-01-08 18:03:21.000,1336.5769230769233,651.9615384615386,-1560.6538461538462,5025.807692307692,5702.673469387755
2026-01-08 18:03:21.020,1262.7115384615386,726.019230769231,-1561.173076923077,5026.096153846154,5702.428571428572
2026-01-08 18:03:21.040,1188.8461538461538,800.0769230769229,-1561.6923076923076,5026.384615384615,5702.183673469388
2026-01-08 18:03:21.060,1114.9807692307695,874.1346153846152,-1562.2115384615386,5026.673076923077,5701.938775510204
2026-01-08 18:03:21.080,1041.1153846153848,948.1923076923076,-1562.7307692307693,5026.961538461538,5701.693877551021
2026-01-08 18:03:21.100,967.25,1022.25,-1563.25,5027.25,5701.448979591837
2026-01-08 18:03:21.120,893.3846153846152,1096.3076923076924,-1563.7692307692307,5027.538461538462,5701.2040816326535
2026-01-08 18:03:21.140,819.519230769231,1170.3653846153848,-1564.2884615384614,5027.826923076923,5700.959183673469
2026-01-08 18:03:21.160,745.6538461538462,1244.4230769230767,-1564.8076923076924,5028.115384615385,5700.714285714285
2026-01-08 18:03:21.180,671.7884615384614,1318.480769230769,-1565.326923076923,5028.403846153846,5700.469387755102
2026-01-08 18:03:21.200,597.9230769230771,1392.5384615384614,-1565.8461538461538,5028.692307692308,5700.224489795918
2026-01-08 18:03:21.220,524.0576923076924,1466.5961538461538,-1566.3653846153845,5028.9807692307695,5699.9795918367345
2026-01-08 18:03:21.240,450.1923076923076,1540.6538461538462,-1566.8846153846155,5029.2692307692305,5699.734693877551
2026-01-08 18:03:21.260,376.3269230769233,1614.7115384615386,-1567.4038461538462,5029.557692307692,5699.489795918367
2026-01-08 18:03:21.280,302.46153846153857,1688.7692307692305,-1567.923076923077,5029.846153846154,5699.244897959184
2026-01-08 18:03:21.300,228.5961538461538,1762.8269230769229,-1568.4423076923076,5030.134615384615,5699.0
2026-01-08 18:03:21.320,154.7307692307695,1836.8846153846152,-1568.9615384615386,5030.423076923077,5698.711538461538
2026-01-08 18:03:21.340,80.86538461538476,1910.9423076923076,-1569.4807692307693,5030.711538461538,5698.423076923077
2026-01-08 18:03:21.360,7.0,1985.0,-1570.0,5031.0,5698.134615384615
2026-01-08 18:03:21.380,85.55102040816327,1907.8163265306123,-1569.8367346938776,5031.959183673469,5697.846153846154
2026-01-08 18:03:21.400,164.10204081632654,1830.6326530612246,-1569.6734693877552,5032.918367346939,5697.557692307692
2026-01-08 18:03:21.420,242.65306122448982,1753.4489795918366,-1569.5102040816328,5033.877551020408,5697.2692307692305
2026-01-08 18:03:21.440,321.2040816326531,1676.265306122449,-1569.3469387755101,5034.836734693878,5696.9807692307695
2026-01-08 18:03:21.460,399.7551020408163,1599.0816326530612,-1569.1836734693877,5035.7959183673465,5696.692307692308
2026-01-08 18:03:21.480,478.30612244897964,1521.8979591836735,-1569.0204081632653,5036.755102040816,5696.403846153846
2026-01-08 18:03:21.500,556.8571428571429,1444.7142857142858,-1568.857142857143,5037.714285714285,5696.115384615385
2026-01-08 18:03:21.520,635.4081632653061,1367.5306122448978,-1568.6938775510205,5038.673469387755,5695.826923076923
2026-01-08 18:03:21.540,713.9591836734694,1290.3469387755104,-1568.530612244898,5039.632653061224,5695.538461538462
2026-01-08 18:03:21.560,792.5102040816327,1213.1632653061224,-1568.3673469387754,5040.591836734694,5695.25
2026-01-08 18:03:21.580,871.0612244897959,1135.9795918367347,-1568.204081632653,5041.551020408163,5694.961538461538
2026-01-08 18:03:21.600,949.6122448979593,1058.795918367347,-1568.0408163265306,5042.510204081633,5694.673076923077
2026-01-08 18:03:21.620,1028.1632653061224,981.6122448979592,-1567.8775510204082,5043.469387755102,5694.384615384615
2026-01-08 18:03:21.640,1106.7142857142858,904.4285714285713,-1567.7142857142858,5044.428571428572,5694.096153846154
2026-01-08 18:03:21.660,1185.265306122449,827.2448979591836,-1567.5510204081634,5045.3877551020405,5693.807692307692
2026-01-08 18:03:21.680,1263.8163265306123,750.0612244897959,-1567.3877551020407,5046.34693877551,5693.5192307692305
2026-01-08 18:03:21.700,1342.3673469387757,672.8775510204082,-1567.2244897959183,5047.306122448979,5693.2307692307695
2026-01-08 18:03:21.720,1420.9183673469388,595.6938775510205,-1567.061224489796,5048.265306122449,5692.942307692308
2026-01-08 18:03:21.740,1499.4693877551022,518.5102040816325,-1566.8979591836735,5049.224489795918,5692.653846153846
2026-01-08 18:03:21.760,1578.0204081632653,441.3265306122448,-1566.734693877551,5050.183673469388,5692.365384615385
2026-01-08 18:03:21.780,1656.5714285714287,364.1428571428571,-1566.5714285714287,5051.142857142857,5692.076923076923
2026-01-08 18:03:21.800,1735.1224489795918,286.9591836734694,-1566.408163265306,5052.102040816327,5691.788461538462
2026-01-08 18:03:21.820,1813.6734693877552,209.77551020408168,-1566.2448979591836,5053.061224489796,5691.5
2026-01-08 18:03:21.840,1892.2244897959185,132.59183673469397,-1566.0816326530612,5054.0204081632655,5691.211538461538
2026-01-08 18:03:21.860,1970.7755102040817,55.40816326530603,-1565.9183673469388,5054.9795918367345,5690.923076923077
2026-01-08 18:03:21.880,2049.326530612245,-21.775510204081684,-1565.7551020408164,5055.938775510204,5690.634615384615
2026-01-08 18:03:21.900,2127.877551020408,-98.9591836734694,-1565.591836734694,5056.897959183673,5690.346153846154
2026-01-08 18:03:21.920,2206.4285714285716,-176.14285714285734,-1565.4285714285713,5057.857142857143,5690.057692307692
2026-01-08 18:03:21.940,2284.979591836735,-253.32653061224482,-1565.265306122449,5058.816326530612,5689.7692307692305
2026-01-08 18:03:21.960,2363.530612244898,-330.51020408163276,-1565.1020408163265,5059.775510204082,5689.4807692307695
2026-01-08 18:03:21.980,2442.081632653061,-407.69387755102025,-1564.938775510204,5060.734693877551,5689.192307692308
2026-01-08 18:03:22.000,2520.6326530612246,-484.8775510204082,-1564.7755102040817,5061.693877551021,5688.903846153846
2026-01-08 18:03:22.020,2599.183673469388,-562.0612244897961,-1564.6122448979593,5062.65306122449,5688.615384615385
2026-01-08 18:03:22.040,2677.7346938775513,-639.2448979591836,-1564.4489795918366,5063.6122448979595,5688.326923076923
2026-01-08 18:03:22.060,2756.285714285714,-716.4285714285716,-1564.2857142857142,5064.571428571428,5688.038461538462
2026-01-08 18:03:22.080,2834.8367346938776,-793.612244897959,-1564.1224489795918,5065.530612244898,5687.75
2026-01-08 18:03:22.100,2913.387755102041,-870.795918367347,-1563.9591836734694,5066.489795918367,5687.461538461538
2026-01-08 18:03:22.120,2991.9387755102043,-947.9795918367349,-1563.795918367347,5067.448979591837,5687.173076923077
2026-01-08 18:03:22.140,3070.4897959183672,-1025.1632653061224,-1563.6326530612246,5068.408163265306,5686.884615384615
2026-01-08 18:03:22.160,3149.0408163265306,-1102.3469387755104,-1563.469387755102,5069.367346938776,5686.596153846154
2026-01-08 18:03:22.180,3227.591836734694,-1179.5306122448978,-1563.3061224489795,5070.326530612245,5686.307692307692
2026-01-08 18:03:22.200,3306.1428571428573,-1256.7142857142858,-1563.142857142857,5071.285714285715,5686.0192307692305
2026-01-08 18:03:22.220,3384.6938775510207,-1333.8979591836737,-1562.9795918367347,5072.244897959184,5685.7307692307695
2026-01-08 18:03:22.240,3463.2448979591836,-1411.0816326530612,-1562.8163265306123,5073.2040816326535,5685.442307692308
2026-01-08 18:03:22.260,3541.795918367347,-1488.2653061224491,-1562.6530612244899,5074.163265306122,5685.153846153846
2026-01-08 18:03:22.280,3620.3469387755104,-1565.4489795918366,-1562.4897959183672,5075.122448979592,5684.865384615385
2026-01-08 18:03:22.300,3698.8979591836737,-1642.6326530612246,-1562.3265306122448,5076.081632653061,5684.576923076923
2026-01-08 18:03:22.320,3777.448979591837,-1719.816326530612,-1562.1632653061224,5077.040816326531,5684.288461538462
2026-01-08 18:03:22.340,3856.0,-1797.0,-1562.0,5078.0,5684.0
2026-01-08 18:03:22.360,3821.45,-1762.0166666666667,-1530.1,5078.116666666667,5684.351851851852
2026-01-08 18:03:22.380,3786.9,-1727.0333333333333,-1498.2,5078.233333333334,5684.7037037037035
2026-01-08 18:03:22.400,3752.35,-1692.05,-1466.3,5078.35,5685.055555555556
2026-01-08 18:03:22.420,3717.8,-1657.0666666666666,-1434.4,5078.466666666666,5685.407407407408
2026-01-08 18:03:22.440,3683.25,-1622.0833333333333,-1402.5,5078.583333333333,5685.759259259259
2026-01-08 18:03:22.460,3648.7,-1587.1,-1370.6,5078.7,5686.111111111111
2026-01-08 18:03:22.480,3614.15,-1552.1166666666668,-1338.7,5078.816666666667,5686.462962962963
2026-01-08 18:03:22.500,3579.6,-1517.1333333333332,-1306.8,5078.933333333333,5686.814814814815
2026-01-08 18:03:22.520,3545.05,-1482.15,-1274.9,5079.05,5687.166666666667
2026-01-08 18:03:22.540,3510.5,-1447.1666666666665,-1243.0,5079.166666666667,5687.518518518518
2026-01-08 18:03:22.560,3475.95,-1412.1833333333334,-1211.1,5079.283333333334,5687.87037037037
2026-01-08 18:03:22.580,3441.4,-1377.2,-1179.2,5079.4,5688.222222222223
2026-01-08 18:03:22.600,3406.85,-1342.2166666666667,-1147.3,5079.516666666666,5688.574074074074
2026-01-08 18:03:22.620,3372.3,-1307.2333333333333,-1115.4,5079.633333333333,5688.925925925926
2026-01-08 18:03:22.640,3337.75,-1272.25,-1083.5,5079.75,5689.277777777777
2026-01-08 18:03:22.660,3303.2,-1237.2666666666667,-1051.6,5079.866666666667,5689.62962962963
2026-01-08 18:03:22.680,3268.65,-1202.2833333333333,-1019.7,5079.983333333334,5689.981481481482
2026-01-08 18:03:22.700,3234.1,-1167.3,-987.8000000000001,5080.1,5690.333333333333
2026-01-08 18:03:22.720,3199.55,-1132.3166666666666,-955.9,5080.216666666666,5690.685185185185
2026-01-08 18:03:22.740,3165.0,-1097.3333333333333,-924.0,5080.333333333333,5691.037037037037
2026-01-08 18:03:22.760,3130.45,-1062.35,-892.1,5080.45,5691.388888888889
2026-01-08 18:03:22.780,3095.9,-1027.3666666666668,-860.2,5080.566666666667,5691.740740740741
2026-01-08 18:03:22.800,3061.35,-992.3833333333333,-828.3000000000001,5080.683333333333,5692.092592592592
2026-01-08 18:03:22.820,3026.8,-957.4,-796.4000000000001,5080.8,5692.444444444444
2026-01-08 18:03:22.840,2992.25,-922.4166666666666,-764.5,5080.916666666667,5692.7962962962965
2026-01-08 18:03:22.860,2957.7,-887.4333333333333,-732.6,5081.033333333334,5693.148148148148
2026-01-08 18:03:22.880,2923.15,-852.4499999999999,-700.7,5081.15,5693.5
2026-01-08 18:03:22.900,2888.6000000000004,-817.4666666666667,-668.8000000000001,5081.266666666666,5693.851851851852
2026-01-08 18:03:22.920,2854.05,-782.4833333333333,-636.9000000000001,5081.383333333333,5694.2037037037035
2026-01-08 18:03:22.940,2819.5,-747.5,-605.0,5081.5,5694.555555555556
2026-01-08 18:03:22.960,2784.95,-712.5166666666667,-573.1,5081.616666666667,5694.907407407408
2026-01-08 18:03:22.980,2750.4,-677.5333333333333,-541.2,5081.733333333334,5695.259259259259
2026-01-08 18:03:23.000,2715.8500000000004,-642.55,-509.29999999999995,5081.85,5695.611111111111
2026-01-08 18:03:23.020,2681.3,-607.5666666666666,-477.4000000000001,5081.966666666666,5695.962962962963
2026-01-08 18:03:23.040,2646.75,-572.5833333333333,-445.5,5082.083333333333,5696.314814814815
2026-01-08 18:03:23.060,2612.2,-537.5999999999999,-413.60000000000014,5082.2,5696.666666666667
2026-01-08 18:03:23.080,2577.65,-502.61666666666656,-381.70000000000005,5082.316666666667,5697.018518518518
2026-01-08 18:03:23.100,2543.1000000000004,-467.6333333333332,-349.79999999999995,5082.433333333333,5697.37037037037
2026-01-08 18:03:23.120,2508.55,-432.64999999999986,-317.9000000000001,5082.55,5697.722222222223
2026-01-08 18:03:23.140,2474.0,-397.6666666666665,-286.0,5082.666666666667,5698.074074074074
2026-01-08 18:03:23.160,2439.45,-362.6833333333334,-254.10000000000014,5082.783333333334,5698.425925925926
2026-01-08 18:03:23.180,2404.9,-327.70000000000005,-222.20000000000005,5082.9,5698.777777777777
2026-01-08 18:03:23.200,2370.3500000000004,-292.7166666666667,-190.29999999999995,5083.016666666666,5699.12962962963
2026-01-08 18:03:23.220,2335.8,-257.73333333333335,-158.4000000000001,5083.133333333333,5699.481481481482
2026-01-08 18:03:23.240,2301.25,-222.75,-126.5,5083.25,5699.833333333333
2026-01-08 18:03:23.260,2266.7,-187.76666666666665,-94.60000000000014,5083.366666666667,5700.185185185185
2026-01-08 18:03:23.280,2232.15,-152.7833333333333,-62.700000000000045,5083.483333333334,5700.537037037037
2026-01-08 18:03:23.300,2197.6000000000004,-117.79999999999995,-30.800000000000182,5083.6,5700.888888888889
2026-01-08 18:03:23.320,2163.05,-82.8166666666666,1.099999999999909,5083.716666666666,5701.240740740741
2026-01-08 18:03:23.340,2128.5,-47.83333333333326,33.0,5083.833333333333,5701.592592592592
2026-01-08 18:03:23.360,2093.95,-12.849999999999909,64.89999999999986,5083.95,5701.944444444444
2026-01-08 18:03:23.380,2059.4,22.13333333333344,96.79999999999995,5084.066666666667,5702.2962962962965
2026-01-08 18:03:23.400,2024.8500000000001,57.11666666666679,128.69999999999982,5084.183333333333,5702.648148148148
2026-01-08 18:03:23.420,1990.3000000000002,92.10000000000014,160.5999999999999,5084.3,5703.0
2026-01-08 18:03:23.440,1955.7500000000002,127.08333333333348,192.5,5084.416666666667,5702.979166666667
2026-01-08 18:03:23.460,1921.2000000000003,162.0666666666666,224.39999999999986,5084.533333333334,5702.958333333333
2026-01-08 18:03:23.480,1886.65,197.04999999999995,256.29999999999995,5084.65,5702.9375
2026-01-08 18:03:23.500,1852.1000000000001,232.0333333333333,288.1999999999998,5084.766666666666,5702.916666666667
2026-01-08 18:03:23.520,1817.5500000000002,267.0166666666669,320.0999999999999,5084.883333333333,5702.895833333333
2026-01-08 18:03:23.540,1783.0,302.0,352.0,5085.0,5702.875
2026-01-08 18:03:23.560,1787.1190476190477,297.2857142857143,305.2142857142857,5084.333333333333,5702.854166666667
2026-01-08 18:03:23.580,1791.2380952380952,292.57142857142856,258.42857142857144,5083.666666666667,5702.833333333333
2026-01-08 18:03:23.600,1795.357142857143,287.85714285714283,211.64285714285714,5083.0,5702.8125
2026-01-08 18:03:23.620,1799.4761904761904,283.14285714285717,164.85714285714286,5082.333333333333,5702.791666666667
2026-01-08 18:03:23.640,1803.595238095238,278.42857142857144,118.07142857142858,5081.666666666667,5702.770833333333
2026-01-08 18:03:23.660,1807.7142857142858,273.7142857142857,71.28571428571428,5081.0,5702.75
2026-01-08 18:03:23.680,1811.8333333333333,269.0,24.5,5080.333333333333,5702.729166666667
2026-01-08 18:03:23.700,1815.952380952381,264.2857142857143,-22.285714285714278,5079.666666666667,5702.708333333333
2026-01-08 18:03:23.720,1820.0714285714287,259.57142857142856,-69.07142857142856,5079.0,5702.6875
2026-01-08 18:03:23.740,1824.1904761904761,254.85714285714286,-115.85714285714283,5078.333333333333,5702.666666666667
2026-01-08 18:03:23.760,1828.3095238095239,250.14285714285714,-162.6428571428571,5077.666666666667,5702.645833333333
2026-01-08 18:03:23.780,1832.4285714285713,245.42857142857144,-209.42857142857144,5077.0,5702.625
2026-01-08 18:03:23.800,1836.547619047619,240.71428571428572,-256.21428571428567,5076.333333333333,5702.604166666667
2026-01-08 18:03:23.820,1840.6666666666667,236.0,-303.0,5075.666666666667,5702.583333333333
2026-01-08 18:03:23.840,1844.7857142857142,231.28571428571428,-349.7857142857142,5075.0,5702.5625
2026-01-08 18:03:23.860,1848.904761904762,226.57142857142856,-396.57142857142856,5074.333333333333,5702.541666666667
2026-01-08 18:03:23.880,1853.0238095238096,221.85714285714286,-443.3571428571429,5073.666666666667,5702.520833333333
2026-01-08 18:03:23.900,1857.142857142857,217.14285714285714,-490.1428571428571,5073.0,5702.5
2026-01-08 18:03:23.920,1861.2619047619048,212.42857142857144,-536.9285714285714,5072.333333333333,5702.479166666667
2026-01-08 18:03:23.940,1865.3809523809523,207.71428571428572,-583.7142857142857,5071.666666666667,5702.458333333333
2026-01-08 18:03:23.960,1869.5,203.0,-630.5,5071.0,5702.4375
2026-01-08 18:03:23.980,1873.6190476190477,198.28571428571428,-677.2857142857142,5070.333333333333,5702.416666666667
2026-01-08 18:03:24.000,1877.7380952380952,193.57142857142856,-724.0714285714284,5069.666666666667,5702.395833333333
2026-01-08 18:03:24.020,1881.857142857143,188.85714285714286,-770.8571428571429,5069.0,5702.375
2026-01-08 18:03:24.040,1885.9761904761904,184.14285714285714,-817.6428571428571,5068.333333333333,5702.354166666667
2026-01-08 18:03:24.060,1890.095238095238,179.42857142857144,-864.4285714285713,5067.666666666667,5702.333333333333
2026-01-08 18:03:24.080,1894.2142857142858,174.71428571428572,-911.2142857142858,5067.0,5702.3125
2026-01-08 18:03:24.100,1898.3333333333333,170.0,-958.0,5066.333333333333,5702.291666666667
2026-01-08 18:03:24.120,1902.452380952381,165.28571428571428,-1004.7857142857142,5065.666666666667,5702.270833333333
2026-01-08 18:03:24.140,1906.5714285714284,160.57142857142856,-1051.5714285714284,5065.0,5702.25
2026-01-08 18:03:24.160,1910.6904761904761,155.85714285714286,-1098.357142857143,5064.333333333333,5702.229166666667
2026-01-08 18:03:24.180,1914.8095238095239,151.14285714285714,-1145.142857142857,5063.666666666667,5702.208333333333
2026-01-08 18:03:24.200,1918.9285714285713,146.42857142857142,-1191.9285714285713,5063.0,5702.1875
2026-01-08 18:03:24.220,1923.047619047619,141.71428571428572,-1238.7142857142858,5062.333333333333,5702.166666666667
2026-01-08 18:03:24.240,1927.1666666666667,137.0,-1285.5,5061.666666666667,5702.145833333333
2026-01-08 18:03:24.260,1931.2857142857142,132.28571428571428,-1332.2857142857142,5061.0,5702.125
2026-01-08 18:03:24.280,1935.404761904762,127.57142857142856,-1379.0714285714284,5060.333333333333,5702.104166666667
2026-01-08 18:03:24.300,1939.5238095238096,122.85714285714286,-1425.857142857143,5059.666666666667,5702.083333333333
2026-01-08 18:03:24.320,1943.642857142857,118.14285714285714,-1472.642857142857,5059.0,5702.0625
2026-01-08 18:03:24.340,1947.7619047619048,113.42857142857142,-1519.4285714285713,5058.333333333333,5702.041666666667
2026-01-08 18:03:24.360,1951.8809523809523,108.71428571428572,-1566.2142857142858,5057.666666666667,5702.020833333333
2026-01-08 18:03:24.380,1956.0,104.0,-1613.0,5057.0,5702.0
2026-01-08 18:03:24.400,1952.0416666666667,109.125,-1612.25,5057.229166666667,5702.4375
2026-01-08 18:03:24.420,1948.0833333333333,114.25,-1611.5,5057.458333333333,5702.875
2026-01-08 18:03:24.440,1944.125,119.375,-1610.75,5057.6875,5703.3125
2026-01-08 18:03:24.460,1940.1666666666667,124.5,-1610.0,5057.916666666667,5703.75
2026-01-08 18:03:24.480,1936.2083333333333,129.625,-1609.25,5058.145833333333,5704.1875
2026-01-08 18:03:24.500,1932.25,134.75,-1608.5,5058.375,5704.625
2026-01-08 18:03:24.520,1928.2916666666667,139.875,-1607.75,5058.604166666667,5705.0625
2026-01-08 18:03:24.540,1924.3333333333333,145.0,-1607.0,5058.833333333333,5705.5
2026-01-08 18:03:24.560,1920.375,150.125,-1606.25,5059.0625,5705.9375
2026-01-08 18:03:24.580,1916.4166666666667,155.25,-1605.5,5059.291666666667,5706.375
2026-01-08 18:03:24.600,1912.4583333333333,160.375,-1604.75,5059.520833333333,5706.8125
2026-01-08 18:03:24.620,1908.5,165.5,-1604.0,5059.75,5707.25
2026-01-08 18:03:24.640,1904.5416666666667,170.625,-1603.25,5059.979166666667,5707.6875
2026-01-08 18:03:24.660,1900.5833333333333,175.75,-1602.5,5060.208333333333,5708.125
2026-01-08 18:03:24.680,1896.625,180.875,-1601.75,5060.4375,5708.5625
2026-01-08 18:03:24.700,1892.6666666666667,186.0,-1601.0,5060.666666666667,5709.0
2026-01-08 18:03:24.720,1888.7083333333333,191.125,-1600.25,5060.895833333333,5709.4375
2026-01-08 18:03:24.740,1884.75,196.25,-1599.5,5061.125,5709.875
2026-01-08 18:03:24.760,1880.7916666666667,201.375,-1598.75,5061.354166666667,5710.3125
2026-01-08 18:03:24.780,1876.8333333333333,206.5,-1598.0,5061.583333333333,5710.75
2026-01-08 18:03:24.800,1872.875,211.625,-1597.25,5061.8125,5711.1875
2026-01-08 18:03:24.820,1868.9166666666667,216.75,-1596.5,5062.041666666667,5711.625
2026-01-08 18:03:24.840,1864.9583333333333,221.875,-1595.75,5062.270833333333,5712.0625
2026-01-08 18:03:24.860,1861.0,227.0,-1595.0,5062.5,5712.5
2026-01-08 18:03:24.880,1857.0416666666667,232.125,-1594.25,5062.729166666667,5712.9375
2026-01-08 18:03:24.900,1853.0833333333333,237.25,-1593.5,5062.958333333333,5713.375
2026-01-08 18:03:24.920,1849.125,242.375,-1592.75,5063.1875,5713.8125
2026-01-08 18:03:24.940,1845.1666666666667,247.5,-1592.0,5063.416666666667,5714.25
2026-01-08 18:03:24.960,1841.2083333333333,252.625,-1591.25,5063.645833333333,5714.6875
2026-01-08 18:03:24.980,1837.25,257.75,-1590.5,5063.875,5715.125
2026-01-08 18:03:25.000,1833.2916666666667,262.875,-1589.75,5064.104166666667,5715.5625
2026-01-08 18:03:25.020,1829.3333333333333,268.0,-1589.0,5064.333333333333,5716.0
2026-01-08 18:03:25.040,1825.375,273.125,-1588.25,5064.5625,5716.4375
2026-01-08 18:03:25.060,1821.4166666666667,278.25,-1587.5,5064.791666666667,5716.875
2026-01-08 18:03:25.080,1817.4583333333333,283.375,-1586.75,5065.020833333333,5717.3125
2026-01-08 18:03:25.100,1813.5,288.5,-1586.0,5065.25,5717.75
2026-01-08 18:03:25.120,1809.5416666666667,293.625,-1585.25,5065.479166666667,5718.1875
2026-01-08 18:03:25.140,1805.5833333333333,298.75,-1584.5,5065.708333333333,5718.625
2026-01-08 18:03:25.160,1801.625,303.875,-1583.75,5065.9375,5719.0625
2026-01-08 18:03:25.180,1797.6666666666667,309.0,-1583.0,5066.166666666667,5719.5
2026-01-08 18:03:25.200,1793.7083333333333,314.125,-1582.25,5066.395833333333,5719.9375
2026-01-08 18:03:25.220,1789.75,319.25,-1581.5,5066.625,5720.375
2026-01-08 18:03:25.240,1785.7916666666667,324.375,-1580.75,5066.854166666667,5720.8125
2026-01-08 18:03:25.260,1781.8333333333333,329.5,-1580.0,5067.083333333333,5721.25
2026-01-08 18:03:25.280,1777.875,334.625,-1579.25,5067.3125,5721.6875
2026-01-08 18:03:25.300,1773.9166666666667,339.75,-1578.5,5067.541666666667,5722.125
2026-01-08 18:03:25.320,1769.9583333333333,344.875,-1577.75,5067.770833333333,5722.5625
2026-01-08 18:03:25.340,1766.0,350.0,-1577.0,5068.0,5723.0
2026-01-08 18:03:25.360,1769.7777777777778,380.31481481481484,-1578.2407407407406,5063.407407407408,5723.0
2026-01-08 18:03:25.380,1773.5555555555557,410.6296296296296,-1579.4814814814815,5058.814814814815,5723.0
2026-01-08 18:03:25.400,1777.3333333333333,440.94444444444446,-1580.7222222222222,5054.222222222223,5723.0
2026-01-08 18:03:25.420,1781.111111111111,471.25925925925924,-1581.962962962963,5049.62962962963,5723.0
2026-01-08 18:03:25.440,1784.888888888889,501.5740740740741,-1583.2037037037037,5045.037037037037,5723.0
2026-01-08 18:03:25.460,1788.6666666666667,531.8888888888889,-1584.4444444444443,5040.444444444444,5723.0
2026-01-08 18:03:25.480,1792.4444444444443,562.2037037037037,-1585.6851851851852,5035.851851851852,5723.0
2026-01-08 18:03:25.500,1796.2222222222222,592.5185185185185,-1586.9259259259259,5031.259259259259,5723.0
2026-01-08 18:03:25.520,1800.0,622.8333333333333,-1588.1666666666667,5026.666666666667,5723.0
2026-01-08 18:03:25.540,1803.7777777777778,653.1481481481482,-1589.4074074074074,5022.074074074074,5723.0
2026-01-08 18:03:25.560,1807.5555555555557,683.4629629629629,-1590.648148148148,5017.481481481482,5723.0
2026-01-08 18:03:25.580,1811.3333333333333,713.7777777777778,-1591.888888888889,5012.888888888889,5723.0
2026-01-08 18:03:25.600,1815.111111111111,744.0925925925926,-1593.1296296296296,5008.2962962962965,5723.0
2026-01-08 18:03:25.620,1818.888888888889,774.4074074074074,-1594.3703703703704,5003.7037037037035,5723.0
2026-01-08 18:03:25.640,1822.6666666666667,804.7222222222222,-1595.611111111111,4999.111111111111,5723.0
2026-01-08 18:03:25.660,1826.4444444444443,835.037037037037,-1596.851851851852,4994.518518518518,5723.0
2026-01-08 18:03:25.680,1830.2222222222222,865.3518518518518,-1598.0925925925926,4989.925925925926,5723.0
2026-01-08 18:03:25.700,1834.0,895.6666666666666,-1599.3333333333333,4985.333333333333,5723.0
2026-01-08 18:03:25.720,1837.7777777777778,925.9814814814814,-1600.5740740740741,4980.740740740741,5723.0
2026-01-08 18:03:25.740,1841.5555555555557,956.2962962962963,-1601.8148148148148,4976.148148148148,5723.0
2026-01-08 18:03:25.760,1845.3333333333333,986.6111111111111,-1603.0555555555557,4971.555555555556,5723.0
2026-01-08 18:03:25.780,1849.111111111111,1016.9259259259259,-1604.2962962962963,4966.962962962963,5723.0
2026-01-08 18:03:25.800,1852.888888888889,1047.2407407407406,-1605.537037037037,4962.37037037037,5723.0
2026-01-08 18:03:25.820,1856.6666666666667,1077.5555555555557,-1606.7777777777778,4957.777777777777,5723.0
2026-01-08 18:03:25.840,1860.4444444444443,1107.8703703703704,-1608.0185185185185,4953.185185185185,5723.0
2026-01-08 18:03:25.860,1864.2222222222222,1138.1851851851852,-1609.2592592592594,4948.592592592592,5723.0
2026-01-08 18:03:25.880,1868.0,1168.5,-1610.5,4944.0,5723.0
2026-01-08 18:03:25.900,1871.7777777777778,1198.8148148148148,-1611.7407407407406,4939.407407407408,5723.0
2026-01-08 18:03:25.920,1875.5555555555557,1229.1296296296296,-1612.9814814814815,4934.814814814815,5723.0
2026-01-08 18:03:25.940,1879.3333333333333,1259.4444444444443,-1614.2222222222222,4930.222222222223,5723.0
2026-01-08 18:03:25.960,1883.111111111111,1289.7592592592591,-1615.462962962963,4925.62962962963,5723.0
2026-01-08 18:03:25.980,1886.888888888889,1320.074074074074,-1616.7037037037037,4921.037037037037,5723.0
2026-01-08 18:03:26.000,1890.6666666666667,1350.3888888888887,-1617.9444444444443,4916.444444444444,5723.0
2026-01-08 18:03:26.020,1894.4444444444443,1380.7037037037037,-1619.1851851851852,4911.851851851852,5723.0
2026-01-08 18:03:26.040,1898.2222222222222,1411.0185185185185,-1620.4259259259259,4907.259259259259,5723.0
2026-01-08 18:03:26.060,1902.0,1441.3333333333333,-1621.6666666666667,4902.666666666667,5723.0
2026-01-08 18:03:26.080,1905.7777777777778,1471.648148148148,-1622.9074074074074,4898.074074074074,5723.0
2026-01-08 18:03:26.100,1909.5555555555557,1501.9629629629628,-1624.148148148148,4893.481481481482,5723.0
2026-01-08 18:03:26.120,1913.3333333333333,1532.2777777777776,-1625.388888888889,4888.888888888889,5723.0
2026-01-08 18:03:26.140,1917.111111111111,1562.5925925925926,-1626.6296296296296,4884.2962962962965,5723.0
2026-01-08 18:03:26.160,1920.888888888889,1592.9074074074074,-1627.8703703703704,4879.7037037037035,5723.0
2026-01-08 18:03:26.180,1924.6666666666667,1623.2222222222222,-1629.111111111111,4875.111111111111,5723.0
2026-01-08 18:03:26.200,1928.4444444444443,1653.537037037037,-1630.3518518518517,4870.518518518518,5723.0
2026-01-08 18:03:26.220,1932.2222222222222,1683.8518518518517,-1631.5925925925926,4865.925925925926,5723.0
2026-01-08 18:03:26.240,1936.0,1714.1666666666665,-1632.8333333333333,4861.333333333333,5723.0
2026-01-08 18:03:26.260,1939.7777777777778,1744.4814814814813,-1634.0740740740741,4856.740740740741,5723.0
2026-01-08 18:03:26.280,1943.5555555555557,1774.7962962962963,-1635.3148148148148,4852.148148148148,5723.0
2026-01-08 18:03:26.300,1947.3333333333333,1805.111111111111,-1636.5555555555557,4847.555555555556,5723.0
2026-01-08 18:03:26.320,1951.111111111111,1835.4259259259259,-1637.7962962962963,4842.962962962963,5723.0
2026-01-08 18:03:26.340,1954.888888888889,1865.7407407407406,-1639.037037037037,4838.37037037037,5723.0
2026-01-08 18:03:26.360,1958.6666666666667,1896.0555555555554,-1640.2777777777778,4833.777777777777,5723.0
2026-01-08 18:03:26.380,1962.4444444444443,1926.3703703703702,-1641.5185185185185,4829.185185185185,5723.0
2026-01-08 18:03:26.400,1966.2222222222222,1956.685185185185,-1642.7592592592594,4824.592592592592,5723.0
2026-01-08 18:03:26.420,1970.0,1987.0,-1644.0,4820.0,5723.0
2026-01-08 18:03:26.440,2010.9166666666667,1907.5,-1602.1666666666667,4825.041666666667,5722.020833333333
2026-01-08 18:03:26.460,2051.8333333333335,1828.0,-1560.3333333333333,4830.083333333333,5721.041666666667
2026-01-08 18:03:26.480,2092.75,1748.5,-1518.5,4835.125,5720.0625
2026-01-08 18:03:26.500,2133.6666666666665,1669.0,-1476.6666666666667,4840.166666666667,5719.083333333333
2026-01-08 18:03:26.520,2174.5833333333335,1589.5,-1434.8333333333333,4845.208333333333,5718.104166666667
2026-01-08 18:03:26.540,2215.5,1510.0,-1393.0,4850.25,5717.125
2026-01-08 18:03:26.560,2256.4166666666665,1430.5,-1351.1666666666665,4855.291666666667,5716.145833333333
2026-01-08 18:03:26.580,2297.3333333333335,1351.0,-1309.3333333333333,4860.333333333333,5715.166666666667
2026-01-08 18:03:26.600,2338.25,1271.5,-1267.5,4865.375,5714.1875
2026-01-08 18:03:26.620,2379.1666666666665,1192.0,-1225.6666666666665,4870.416666666667,5713.208333333333
2026-01-08 18:03:26.640,2420.0833333333335,1112.5,-1183.8333333333333,4875.458333333333,5712.229166666667
2026-01-08 18:03:26.660,2461.0,1033.0,-1142.0,4880.5,5711.25
2026-01-08 18:03:26.680,2501.9166666666665,953.5,-1100.1666666666665,4885.541666666667,5710.270833333333
2026-01-08 18:03:26.700,2542.833333333333,874.0,-1058.3333333333333,4890.583333333333,5709.291666666667
2026-01-08 18:03:26.720,2583.75,794.5,-1016.5,4895.625,5708.3125
2026-01-08 18:03:26.740,2624.6666666666665,715.0,-974.6666666666666,4900.666666666667,5707.333333333333
2026-01-08 18:03:26.760,2665.583333333333,635.5,-932.8333333333333,4905.708333333333,5706.354166666667
2026-01-08 18:03:26.780,2706.5,556.0,-891.0,4910.75,5705.375
2026-01-08 18:03:26.800,2747.4166666666665,476.5,-849.1666666666666,4915.791666666667,5704.395833333333
2026-01-08 18:03:26.820,2788.333333333333,397.0,-807.3333333333333,4920.833333333333,5703.416666666667
2026-01-08 18:03:26.840,2829.25,317.5,-765.5,4925.875,5702.4375
2026-01-08 18:03:26.860,2870.1666666666665,238.0,-723.6666666666666,4930.916666666667,5701.458333333333
2026-01-08 18:03:26.880,2911.083333333333,158.5,-681.8333333333333,4935.958333333333,5700.479166666667
2026-01-08 18:03:26.900,2952.0,79.0,-640.0,4941.0,5699.5
2026-01-08 18:03:26.920,2992.9166666666665,-0.5,-598.1666666666665,4946.041666666667,5698.520833333333
2026-01-08 18:03:26.940,3033.833333333333,-80.0,-556.3333333333333,4951.083333333333,5697.541666666667
2026-01-08 18:03:26.960,3074.75,-159.5,-514.5,4956.125,5696.5625
2026-01-08 18:03:26.980,3115.6666666666665,-239.0,-472.6666666666665,4961.166666666667,5695.583333333333
2026-01-08 18:03:27.000,3156.583333333333,-318.5,-430.83333333333326,4966.208333333333,5694.604166666667
2026-01-08 18:03:27.020,3197.5,-398.0,-389.0,4971.25,5693.625
2026-01-08 18:03:27.040,3238.4166666666665,-477.5,-347.1666666666665,4976.291666666667,5692.645833333333
2026-01-08 18:03:27.060,3279.333333333333,-557.0,-305.33333333333326,4981.333333333333,5691.666666666667
2026-01-08 18:03:27.080,3320.25,-636.5,-263.5,4986.375,5690.6875
2026-01-08 18:03:27.100,3361.1666666666665,-716.0,-221.66666666666652,4991.416666666667,5689.708333333333
2026-01-08 18:03:27.120,3402.083333333333,-795.5,-179.83333333333326,4996.458333333333,5688.729166666667
2026-01-08 18:03:27.140,3443.0,-875.0,-138.0,5001.5,5687.75
2026-01-08 18:03:27.160,3483.9166666666665,-954.5,-96.16666666666652,5006.541666666667,5686.770833333333
2026-01-08 18:03:27.180,3524.833333333333,-1034.0,-54.33333333333326,5011.583333333333,5685.791666666667
2026-01-08 18:03:27.200,3565.75,-1113.5,-12.5,5016.625,5684.8125
2026-01-08 18:03:27.220,3606.6666666666665,-1193.0,29.333333333333485,5021.666666666667,5683.833333333333
2026-01-08 18:03:27.240,3647.583333333333,-1272.5,71.16666666666674,5026.708333333333,5682.854166666667
2026-01-08 18:03:27.260,3688.5,-1352.0,113.0,5031.75,5681.875
2026-01-08 18:03:27.280,3729.4166666666665,-1431.5,154.83333333333348,5036.791666666667,5680.895833333333
2026-01-08 18:03:27.300,3770.333333333333,-1511.0,196.66666666666674,5041.833333333333,5679.916666666667
2026-01-08 18:03:27.320,3811.25,-1590.5,238.5,5046.875,5678.9375
2026-01-08 18:03:27.340,3852.1666666666665,-1670.0,280.3333333333335,5051.916666666667,5677.958333333333
2026-01-08 18:03:27.360,3893.083333333333,-1749.5,322.16666666666674,5056.958333333333,5676.979166666667
2026-01-08 18:03:27.380,3934.0,-1829.0,364.0,5062.0,5676.0
2026-01-08 18:03:27.400,3933.2291666666665,-1828.7083333333333,363.4791666666667,5062.104166666667,5676.9375
2026-01-08 18:03:27.420,3932.4583333333335,-1828.4166666666667,362.9583333333333,5062.208333333333,5677.875
2026-01-08 18:03:27.440,3931.6875,-1828.125,362.4375,5062.3125,5678.8125
2026-01-08 18:03:27.460,3930.9166666666665,-1827.8333333333333,361.9166666666667,5062.416666666667,5679.75
2026-01-08 18:03:27.480,3930.1458333333335,-1827.5416666666667,361.3958333333333,5062.520833333333,5680.6875
2026-01-08 18:03:27.500,3929.375,-1827.25,360.875,5062.625,5681.625
2026-01-08 18:03:27.520,3928.6041666666665,-1826.9583333333333,360.3541666666667,5062.729166666667,5682.5625
2026-01-08 18:03:27.540,3927.8333333333335,-1826.6666666666667,359.8333333333333,5062.833333333333,5683.5
2026-01-08 18:03:27.560,3927.0625,-1826.375,359.3125,5062.9375,5684.4375
2026-01-08 18:03:27.580,3926.2916666666665,-1826.0833333333333,358.7916666666667,5063.041666666667,5685.375
2026-01-08 18:03:27.600,3925.5208333333335,-1825.7916666666667,358.2708333333333,5063.145833333333,5686.3125
2026-01-08 18:03:27.620,3924.75,-1825.5,357.75,5063.25,5687.25
2026-01-08 18:03:27.640,3923.9791666666665,-1825.2083333333333,357.2291666666667,5063.354166666667,5688.1875
2026-01-08 18:03:27.660,3923.2083333333335,-1824.9166666666667,356.7083333333333,5063.458333333333,5689.125
2026-01-08 18:03:27.680,3922.4375,-1824.625,356.1875,5063.5625,5690.0625
2026-01-08 18:03:27.700,3921.6666666666665,-1824.3333333333333,355.6666666666667,5063.666666666667,5691.0
2026-01-08 18:03:27.720,3920.8958333333335,-1824.0416666666667,355.1458333333333,5063.770833333333,5691.9375
2026-01-08 18:03:27.740,3920.125,-1823.75,354.625,5063.875,5692.875
2026-01-08 18:03:27.760,3919.3541666666665,-1823.4583333333333,354.1041666666667,5063.979166666667,5693.8125
2026-01-08 18:03:27.780,3918.5833333333335,-1823.1666666666667,353.5833333333333,5064.083333333333,5694.75
2026-01-08 18:03:27.800,3917.8125,-1822.875,353.0625,5064.1875,5695.6875
2026-01-08 18:03:27.820,3917.0416666666665,-1822.5833333333333,352.5416666666667,5064.291666666667,5696.625
2026-01-08 18:03:27.840,3916.2708333333335,-1822.2916666666667,352.0208333333333,5064.395833333333,5697.5625
2026-01-08 18:03:27.860,3915.5,-1822.0,351.5,5064.5,5698.5
2026-01-08 18:03:27.880,3914.7291666666665,-1821.7083333333333,350.9791666666667,5064.604166666667,5699.4375
2026-01-08 18:03:27.900,3913.9583333333335,-1821.4166666666667,350.4583333333333,5064.708333333333,5700.375
2026-01-08 18:03:27.920,3913.1875,-1821.125,349.9375,5064.8125,5701.3125
2026-01-08 18:03:27.940,3912.4166666666665,-1820.8333333333333,349.4166666666667,5064.916666666667,5702.25
2026-01-08 18:03:27.960,3911.6458333333335,-1820.5416666666667,348.8958333333333,5065.020833333333,5703.1875
2026-01-08 18:03:27.980,3910.875,-1820.25,348.375,5065.125,5704.125
2026-01-08 18:03:28.000,3910.1041666666665,-1819.9583333333333,347.8541666666667,5065.229166666667,5705.0625
2026-01-08 18:03:28.020,3909.3333333333335,-1819.6666666666667,347.3333333333333,5065.333333333333,5706.0
2026-01-08 18:03:28.040,3908.5625,-1819.375,346.8125,5065.4375,5706.9375
2026-01-08 18:03:28.060,3907.7916666666665,-1819.0833333333333,346.2916666666667,5065.541666666667,5707.875
2026-01-08 18:03:28.080,3907.0208333333335,-1818.7916666666667,345.7708333333333,5065.645833333333,5708.8125
2026-01-08 18:03:28.100,3906.25,-1818.5,345.25,5065.75,5709.75
2026-01-08 18:03:28.120,3905.4791666666665,-1818.2083333333333,344.7291666666667,5065.854166666667,5710.6875
2026-01-08 18:03:28.140,3904.7083333333335,-1817.9166666666667,344.2083333333333,5065.958333333333,5711.625
2026-01-08 18:03:28.160,3903.9375,-1817.625,343.6875,5066.0625,5712.5625
2026-01-08 18:03:28.180,3903.1666666666665,-1817.3333333333333,343.1666666666667,5066.166666666667,5713.5
2026-01-08 18:03:28.200,3902.3958333333335,-1817.0416666666667,342.6458333333333,5066.270833333333,5714.4375
2026-01-08 18:03:28.220,3901.625,-1816.75,342.125,5066.375,5715.375
2026-01-08 18:03:28.240,3900.8541666666665,-1816.4583333333333,341.6041666666667,5066.479166666667,5716.3125
2026-01-08 18:03:28.260,3900.0833333333335,-1816.1666666666667,341.0833333333333,5066.583333333333,5717.25
2026-01-08 18:03:28.280,3899.3125,-1815.875,340.5625,5066.6875,5718.1875
2026-01-08 18:03:28.300,3898.5416666666665,-1815.5833333333333,340.0416666666667,5066.791666666667,5719.125
2026-01-08 18:03:28.320,3897.7708333333335,-1815.2916666666667,339.5208333333333,5066.895833333333,5720.0625
2026-01-08 18:03:28.340,3897.0,-1815.0,339.0,5067.0,5721.0
2026-01-08 18:03:28.360,3860.9444444444443,-1815.148148148148,338.81481481481484,5066.0,5720.62962962963
2026-01-08 18:03:28.380,3824.8888888888887,-1815.2962962962963,338.6296296296296,5065.0,5720.259259259259
2026-01-08 18:03:28.400,3788.8333333333335,-1815.4444444444443,338.44444444444446,5064.0,5719.888888888889
2026-01-08 18:03:28.420,3752.777777777778,-1815.5925925925926,338.25925925925924,5063.0,5719.518518518518
2026-01-08 18:03:28.440,3716.722222222222,-1815.7407407407406,338.0740740740741,5062.0,5719.148148148148
2026-01-08 18:03:28.460,3680.6666666666665,-1815.888888888889,337.8888888888889,5061.0,5718.777777777777
2026-01-08 18:03:28.480,3644.6111111111113,-1816.037037037037,337.7037037037037,5060.0,5718.407407407408
2026-01-08 18:03:28.500,3608.5555555555557,-1816.1851851851852,337.51851851851853,5059.0,5718.037037037037
2026-01-08 18:03:28.520,3572.5,-1816.3333333333333,337.3333333333333,5058.0,5717.666666666667
2026-01-08 18:03:28.540,3536.4444444444443,-1816.4814814814815,337.14814814814815,5057.0,5717.2962962962965
2026-01-08 18:03:28.560,3500.3888888888887,-1816.6296296296296,336.962962962963,5056.0,5716.925925925926
2026-01-08 18:03:28.580,3464.3333333333335,-1816.7777777777778,336.77777777777777,5055.0,5716.555555555556
2026-01-08 18:03:28.600,3428.277777777778,-1816.9259259259259,336.5925925925926,5054.0,5716.185185185185
2026-01-08 18:03:28.620,3392.222222222222,-1817.0740740740741,336.4074074074074,5053.0,5715.814814814815
2026-01-08 18:03:28.640,3356.1666666666665,-1817.2222222222222,336.22222222222223,5052.0,5715.444444444444
2026-01-08 18:03:28.660,3320.1111111111113,-1817.3703703703704,336.037037037037,5051.0,5715.074074074074
2026-01-08 18:03:28.680,3284.0555555555557,-1817.5185185185185,335.85185185185185,5050.0,5714.7037037037035
2026-01-08 18:03:28.700,3248.0,-1817.6666666666667,335.6666666666667,5049.0,5714.333333333333
2026-01-08 18:03:28.720,3211.9444444444443,-1817.8148148148148,335.48148148148147,5048.0,5713.962962962963
2026-01-08 18:03:28.740,3175.8888888888887,-1817.962962962963,335.2962962962963,5047.0,5713.592592592592
2026-01-08 18:03:28.760,3139.833333333333,-1818.111111111111,335.1111111111111,5046.0,5713.222222222223
2026-01-08 18:03:28.780,3103.777777777778,-1818.2592592592594,334.9259259259259,5045.0,5712.851851851852
2026-01-08 18:03:28.800,3067.722222222222,-1818.4074074074074,334.74074074074076,5044.0,5712.481481481482
2026-01-08 18:03:28.820,3031.6666666666665,-1818.5555555555557,334.55555555555554,5043.0,5712.111111111111
2026-01-08 18:03:28.840,2995.6111111111113,-1818.7037037037037,334.3703703703704,5042.0,5711.740740740741
2026-01-08 18:03:28.860,2959.5555555555557,-1818.851851851852,334.18518518518516,5041.0,5711.37037037037
2026-01-08 18:03:28.880,2923.5,-1819.0,334.0,5040.0,5711.0
2026-01-08 18:03:28.900,2887.4444444444443,-1819.148148148148,333.81481481481484,5039.0,5710.62962962963
2026-01-08 18:03:28.920,2851.3888888888887,-1819.2962962962963,333.6296296296296,5038.0,5710.259259259259
2026-01-08 18:03:28.940,2815.333333333333,-1819.4444444444443,333.44444444444446,5037.0,5709.888888888889
2026-01-08 18:03:28.960,2779.277777777778,-1819.5925925925926,333.25925925925924,5036.0,5709.518518518518
2026-01-08 18:03:28.980,2743.222222222222,-1819.7407407407406,333.0740740740741,5035.0,5709.148148148148
2026-01-08 18:03:29.000,2707.1666666666665,-1819.888888888889,332.8888888888889,5034.0,5708.777777777777
2026-01-08 18:03:29.020,2671.1111111111113,-1820.037037037037,332.7037037037037,5033.0,5708.407407407408
2026-01-08 18:03:29.040,2635.0555555555557,-1820.1851851851852,332.51851851851853,5032.0,5708.037037037037
2026-01-08 18:03:29.060,2599.0,-1820.3333333333333,332.3333333333333,5031.0,5707.666666666667
2026-01-08 18:03:29.080,2562.9444444444443,-1820.4814814814815,332.14814814814815,5030.0,5707.2962962962965
2026-01-08 18:03:29.100,2526.8888888888887,-1820.6296296296296,331.962962962963,5029.0,5706.925925925926
2026-01-08 18:03:29.120,2490.833333333333,-1820.7777777777778,331.77777777777777,5028.0,5706.555555555556
2026-01-08 18:03:29.140,2454.777777777778,-1820.9259259259259,331.5925925925926,5027.0,5706.185185185185
2026-01-08 18:03:29.160,2418.722222222222,-1821.0740740740741,331.4074074074074,5026.0,5705.814814814815
2026-01-08 18:03:29.180,2382.6666666666665,-1821.2222222222222,331.22222222222223,5025.0,5705.444444444444
2026-01-08 18:03:29.200,2346.6111111111113,-1821.3703703703704,331.037037037037,5024.0,5705.074074074074
2026-01-08 18:03:29.220,2310.5555555555557,-1821.5185185185185,330.85185185185185,5023.0,5704.7037037037035
2026-01-08 18:03:29.240,2274.5,-1821.6666666666667,330.6666666666667,5022.0,5704.333333333333
2026-01-08 18:03:29.260,2238.4444444444443,-1821.8148148148148,330.48148148148147,5021.0,5703.962962962963
2026-01-08 18:03:29.280,2202.3888888888887,-1821.962962962963,330.2962962962963,5020.0,5703.592592592592
2026-01-08 18:03:29.300,2166.333333333333,-1822.111111111111,330.1111111111111,5019.0,5703.222222222223
2026-01-08 18:03:29.320,2130.2777777777774,-1822.2592592592594,329.9259259259259,5018.0,5702.851851851852
2026-01-08 18:03:29.340,2094.222222222222,-1822.4074074074074,329.74074074074076,5017.0,5702.481481481482
2026-01-08 18:03:29.360,2058.1666666666665,-1822.5555555555557,329.55555555555554,5016.0,5702.111111111111
2026-01-08 18:03:29.380,2022.111111111111,-1822.7037037037037,329.3703703703704,5015.0,5701.740740740741
2026-01-08 18:03:29.400,1986.0555555555554,-1822.851851851852,329.18518518518516,5014.0,5701.37037037037
2026-01-08 18:03:29.420,1950.0,-1823.0,329.0,5013.0,5701.0
2026-01-08 18:03:29.440,1949.9791666666667,-1822.4791666666667,288.0416666666667,5013.166666666667,5701.5625
2026-01-08 18:03:29.460,1949.9583333333333,-1821.9583333333333,247.08333333333331,5013.333333333333,5702.125
2026-01-08 18:03:29.480,1949.9375,-1821.4375,206.125,5013.5,5702.6875
2026-01-08 18:03:29.500,1949.9166666666667,-1820.9166666666667,165.16666666666666,5013.666666666667,5703.25
2026-01-08 18:03:29.520,1949.8958333333333,-1820.3958333333333,124.20833333333331,5013.833333333333,5703.8125
2026-01-08 18:03:29.540,1949.875,-1819.875,83.25,5014.0,5704.375
2026-01-08 18:03:29.560,1949.8541666666667,-1819.3541666666667,42.29166666666663,5014.166666666667,5704.9375
2026-01-08 18:03:29.580,1949.8333333333333,-1818.8333333333333,1.3333333333333144,5014.333333333333,5705.5
2026-01-08 18:03:29.600,1949.8125,-1818.3125,-39.625,5014.5,5706.0625
2026-01-08 18:03:29.620,1949.7916666666667,-1817.7916666666667,-80.58333333333337,5014.666666666667,5706.625
2026-01-08 18:03:29.640,1949.7708333333333,-1817.2708333333333,-121.54166666666669,5014.833333333333,5707.1875
2026-01-08 18:03:29.660,1949.75,-1816.75,-162.5,5015.0,5707.75
2026-01-08 18:03:29.680,1949.7291666666667,-1816.2291666666667,-203.45833333333337,5015.166666666667,5708.3125
2026-01-08 18:03:29.700,1949.7083333333333,-1815.7083333333333,-244.41666666666674,5015.333333333333,5708.875
2026-01-08 18:03:29.720,1949.6875,-1815.1875,-285.375,5015.5,5709.4375
2026-01-08 18:03:29.740,1949.6666666666667,-1814.6666666666667,-326.33333333333337,5015.666666666667,5710.0
2026-01-08 18:03:29.760,1949.6458333333333,-1814.1458333333333,-367.29166666666674,5015.833333333333,5710.5625
2026-01-08 18:03:29.780,1949.625,-1813.625,-408.25,5016.0,5711.125
2026-01-08 18:03:29.800,1949.6041666666667,-1813.1041666666667,-449.20833333333337,5016.166666666667,5711.6875
2026-01-08 18:03:29.820,1949.5833333333333,-1812.5833333333333,-490.16666666666674,5016.333333333333,5712.25
2026-01-08 18:03:29.840,1949.5625,-1812.0625,-531.125,5016.5,5712.8125
2026-01-08 18:03:29.860,1949.5416666666667,-1811.5416666666667,-572.0833333333334,5016.666666666667,5713.375
2026-01-08 18:03:29.880,1949.5208333333333,-1811.0208333333333,-613.0416666666667,5016.833333333333,5713.9375
2026-01-08 18:03:29.900,1949.5,-1810.5,-654.0,5017.0,5714.5
2026-01-08 18:03:29.920,1949.4791666666667,-1809.9791666666667,-694.9583333333334,5017.166666666667,5715.0625
2026-01-08 18:03:29.940,1949.4583333333333,-1809.4583333333333,-735.9166666666667,5017.333333333333,5715.625
2026-01-08 18:03:29.960,1949.4375,-1808.9375,-776.875,5017.5,5716.1875
2026-01-08 18:03:29.980,1949.4166666666667,-1808.4166666666667,-817.8333333333335,5017.666666666667,5716.75
2026-01-08 18:03:30.000,1949.3958333333333,-1807.8958333333333,-858.7916666666667,5017.833333333333,5717.3125
2026-01-08 18:03:30.020,1949.375,-1807.375,-899.75,5018.0,5717.875
2026-01-08 18:03:30.040,1949.3541666666667,-1806.8541666666667,-940.7083333333335,5018.166666666667,5718.4375
2026-01-08 18:03:30.060,1949.3333333333333,-1806.3333333333333,-981.6666666666667,5018.333333333333,5719.0
2026-01-08 18:03:30.080,1949.3125,-1805.8125,-1022.625,5018.5,5719.5625
2026-01-08 18:03:30.100,1949.2916666666667,-1805.2916666666667,-1063.5833333333335,5018.666666666667,5720.125
2026-01-08 18:03:30.120,1949.2708333333333,-1804.7708333333333,-1104.5416666666667,5018.833333333333,5720.6875
2026-01-08 18:03:30.140,1949.25,-1804.25,-1145.5,5019.0,5721.25
2026-01-08 18:03:30.160,1949.2291666666667,-1803.7291666666667,-1186.4583333333335,5019.166666666667,5721.8125
2026-01-08 18:03:30.180,1949.2083333333333,-1803.2083333333333,-1227.4166666666667,5019.333333333333,5722.375
2026-01-08 18:03:30.200,1949.1875,-1802.6875,-1268.375,5019.5,5722.9375
2026-01-08 18:03:30.220,1949.1666666666667,-1802.1666666666667,-1309.3333333333335,5019.666666666667,5723.5
2026-01-08 18:03:30.240,1949.1458333333333,-1801.6458333333333,-1350.2916666666667,5019.833333333333,5724.0625
2026-01-08 18:03:30.260,1949.125,-1801.125,-1391.25,5020.0,5724.625
2026-01-08 18:03:30.280,1949.1041666666667,-1800.6041666666667,-1432.2083333333335,5020.166666666667,5725.1875
2026-01-08 18:03:30.300,1949.0833333333333,-1800.0833333333333,-1473.1666666666667,5020.333333333333,5725.75
2026-01-08 18:03:30.320,1949.0625,-1799.5625,-1514.125,5020.5,5726.3125
2026-01-08 18:03:30.340,1949.0416666666667,-1799.0416666666667,-1555.0833333333335,5020.666666666667,5726.875
2026-01-08 18:03:30.360,1949.0208333333333,-1798.5208333333333,-1596.0416666666667,5020.833333333333,5727.4375
2026-01-08 18:03:30.380,1949.0,-1798.0,-1637.0,5021.0,5728.0
2026-01-08 18:03:30.400,1945.375,-1754.8958333333333,-1637.1666666666667,5021.5,5727.833333333333
2026-01-08 18:03:30.420,1941.75,-1711.7916666666667,-1637.3333333333333,5022.0,5727.666666666667
2026-01-08 18:03:30.440,1938.125,-1668.6875,-1637.5,5022.5,5727.5
2026-01-08 18:03:30.460,1934.5,-1625.5833333333333,-1637.6666666666667,5023.0,5727.333333333333
2026-01-08 18:03:30.480,1930.875,-1582.4791666666667,-1637.8333333333333,5023.5,5727.166666666667
2026-01-08 18:03:30.500,1927.25,-1539.375,-1638.0,5024.0,5727.0
2026-01-08 18:03:30.520,1923.625,-1496.2708333333335,-1638.1666666666667,5024.5,5726.833333333333
2026-01-08 18:03:30.540,1920.0,-1453.1666666666667,-1638.3333333333333,5025.0,5726.666666666667
2026-01-08 18:03:30.560,1916.375,-1410.0625,-1638.5,5025.5,5726.5
2026-01-08 18:03:30.580,1912.75,-1366.9583333333335,-1638.6666666666667,5026.0,5726.333333333333
2026-01-08 18:03:30.600,1909.125,-1323.8541666666667,-1638.8333333333333,5026.5,5726.166666666667
2026-01-08 18:03:30.620,1905.5,-1280.75,-1639.0,5027.0,5726.0
2026-01-08 18:03:30.640,1901.875,-1237.6458333333335,-1639.1666666666667,5027.5,5725.833333333333
2026-01-08 18:03:30.660,1898.25,-1194.5416666666667,-1639.3333333333333,5028.0,5725.666666666667
2026-01-08 18:03:30.680,1894.625,-1151.4375,-1639.5,5028.5,5725.5
2026-01-08 18:03:30.700,1891.0,-1108.3333333333335,-1639.6666666666667,5029.0,5725.333333333333
2026-01-08 18:03:30.720,1887.375,-1065.2291666666667,-1639.8333333333333,5029.5,5725.166666666667
2026-01-08 18:03:30.740,1883.75,-1022.125,-1640.0,5030.0,5725.0
2026-01-08 18:03:30.760,1880.125,-979.0208333333334,-1640.1666666666667,5030.5,5724.833333333333
2026-01-08 18:03:30.780,1876.5,-935.9166666666667,-1640.3333333333333,5031.0,5724.666666666667
2026-01-08 18:03:30.800,1872.875,-892.8125,-1640.5,5031.5,5724.5
2026-01-08 18:03:30.820,1869.25,-849.7083333333334,-1640.6666666666667,5032.0,5724.333333333333
2026-01-08 18:03:30.840,1865.625,-806.6041666666667,-1640.8333333333333,5032.5,5724.166666666667
2026-01-08 18:03:30.860,1862.0,-763.5,-1641.0,5033.0,5724.0
2026-01-08 18:03:30.880,1858.375,-720.3958333333335,-1641.1666666666667,5033.5,5723.833333333333
2026-01-08 18:03:30.900,1854.75,-677.2916666666667,-1641.3333333333333,5034.0,5723.666666666667
2026-01-08 18:03:30.920,1851.125,-634.1875,-1641.5,5034.5,5723.5
2026-01-08 18:03:30.940,1847.5,-591.0833333333335,-1641.6666666666667,5035.0,5723.333333333333
2026-01-08 18:03:30.960,1843.875,-547.9791666666667,-1641.8333333333333,5035.5,5723.166666666667
2026-01-08 18:03:30.980,1840.25,-504.875,-1642.0,5036.0,5723.0
2026-01-08 18:03:31.000,1836.625,-461.7708333333335,-1642.1666666666667,5036.5,5722.833333333333
2026-01-08 18:03:31.020,1833.0,-418.66666666666674,-1642.3333333333333,5037.0,5722.666666666667
2026-01-08 18:03:31.040,1829.375,-375.5625,-1642.5,5037.5,5722.5
2026-01-08 18:03:31.060,1825.75,-332.4583333333335,-1642.6666666666667,5038.0,5722.333333333333
2026-01-08 18:03:31.080,1822.125,-289.35416666666674,-1642.8333333333333,5038.5,5722.166666666667
2026-01-08 18:03:31.100,1818.5,-246.25,-1643.0,5039.0,5722.0
2026-01-08 18:03:31.120,1814.875,-203.14583333333348,-1643.1666666666667,5039.5,5721.833333333333
2026-01-08 18:03:31.140,1811.25,-160.04166666666674,-1643.3333333333333,5040.0,5721.666666666667
2026-01-08 18:03:31.160,1807.625,-116.9375,-1643.5,5040.5,5721.5
2026-01-08 18:03:31.180,1804.0,-73.83333333333348,-1643.6666666666667,5041.0,5721.333333333333
2026-01-08 18:03:31.200,1800.375,-30.729166666666742,-1643.8333333333333,5041.5,5721.166666666667
2026-01-08 18:03:31.220,1796.75,12.375,-1644.0,5042.0,5721.0
2026-01-08 18:03:31.240,1793.125,55.479166666666515,-1644.1666666666667,5042.5,5720.833333333333
2026-01-08 18:03:31.260,1789.5,98.58333333333326,-1644.3333333333333,5043.0,5720.666666666667
2026-01-08 18:03:31.280,1785.875,141.6875,-1644.5,5043.5,5720.5
2026-01-08 18:03:31.300,1782.25,184.79166666666652,-1644.6666666666667,5044.0,5720.333333333333
2026-01-08 18:03:31.320,1778.625,227.89583333333326,-1644.8333333333333,5044.5,5720.166666666667
2026-01-08 18:03:31.340,1775.0,271.0,-1645.0,5045.0,5720.0
2026-01-08 18:03:31.360,1810.6166666666666,236.36666666666667,-1612.5,5044.916666666667,5719.983333333334
2026-01-08 18:03:31.380,1846.2333333333333,201.73333333333335,-1580.0,5044.833333333333,5719.966666666666
2026-01-08 18:03:31.400,1881.85,167.1,-1547.5,5044.75,5719.95
2026-01-08 18:03:31.420,1917.4666666666667,132.46666666666667,-1515.0,5044.666666666667,5719.933333333333
2026-01-08 18:03:31.440,1953.0833333333333,97.83333333333334,-1482.5,5044.583333333333,5719.916666666667
2026-01-08 18:03:31.460,1988.7,63.19999999999999,-1450.0,5044.5,5719.9
2026-01-08 18:03:31.480,2024.3166666666666,28.566666666666663,-1417.5,5044.416666666667,5719.883333333333
2026-01-08 18:03:31.500,2059.9333333333334,-6.066666666666663,-1385.0,5044.333333333333,5719.866666666667
2026-01-08 18:03:31.520,2095.55,-40.69999999999999,-1352.5,5044.25,5719.85
2026-01-08 18:03:31.540,2131.1666666666665,-75.33333333333331,-1320.0,5044.166666666667,5719.833333333333
2026-01-08 18:03:31.560,2166.7833333333333,-109.96666666666664,-1287.5,5044.083333333333,5719.816666666667
2026-01-08 18:03:31.580,2202.4,-144.60000000000002,-1255.0,5044.0,5719.8
2026-01-08 18:03:31.600,2238.0166666666664,-179.23333333333335,-1222.5,5043.916666666667,5719.783333333334
2026-01-08 18:03:31.620,2273.633333333333,-213.86666666666667,-1190.0,5043.833333333333,5719.766666666666
2026-01-08 18:03:31.640,2309.25,-248.5,-1157.5,5043.75,5719.75
2026-01-08 18:03:31.660,2344.866666666667,-283.1333333333333,-1125.0,5043.666666666667,5719.733333333334
2026-01-08 18:03:31.680,2380.4833333333336,-317.76666666666665,-1092.5,5043.583333333333,5719.716666666666
2026-01-08 18:03:31.700,2416.1,-352.4,-1060.0,5043.5,5719.7
2026-01-08 18:03:31.720,2451.7166666666667,-387.0333333333333,-1027.5,5043.416666666667,5719.683333333333
2026-01-08 18:03:31.740,2487.3333333333335,-421.66666666666663,-995.0,5043.333333333333,5719.666666666667
2026-01-08 18:03:31.760,2522.95,-456.29999999999995,-962.5,5043.25,5719.65
2026-01-08 18:03:31.780,2558.5666666666666,-490.9333333333333,-930.0,5043.166666666667,5719.633333333333
2026-01-08 18:03:31.800,2594.1833333333334,-525.5666666666666,-897.5,5043.083333333333,5719.616666666667
2026-01-08 18:03:31.820,2629.8,-560.2,-865.0,5043.0,5719.6
2026-01-08 18:03:31.840,2665.4166666666665,-594.8333333333334,-832.5,5042.916666666667,5719.583333333333
2026-01-08 18:03:31.860,2701.0333333333333,-629.4666666666667,-800.0,5042.833333333333,5719.566666666667
2026-01-08 18:03:31.880,2736.65,-664.1,-767.5,5042.75,5719.55
2026-01-08 18:03:31.900,2772.2666666666664,-698.7333333333333,-735.0,5042.666666666667,5719.533333333334
2026-01-08 18:03:31.920,2807.883333333333,-733.3666666666667,-702.5,5042.583333333333,5719.516666666666
2026-01-08 18:03:31.940,2843.5,-768.0,-670.0,5042.5,5719.5
2026-01-08 18:03:31.960,2879.116666666667,-802.6333333333332,-637.5,5042.416666666667,5719.483333333334
2026-01-08 18:03:31.980,2914.7333333333336,-837.2666666666667,-605.0,5042.333333333333,5719.466666666666
2026-01-08 18:03:32.000,2950.35,-871.9000000000001,-572.5,5042.25,5719.45
2026-01-08 18:03:32.020,2985.9666666666667,-906.5333333333333,-540.0,5042.166666666667,5719.433333333333
2026-01-08 18:03:32.040,3021.583333333333,-941.1666666666667,-507.5,5042.083333333333,5719.416666666667
2026-01-08 18:03:32.060,3057.2,-975.8,-475.0,5042.0,5719.4
2026-01-08 18:03:32.080,3092.8166666666666,-1010.4333333333334,-442.5,5041.916666666667,5719.383333333333
2026-01-08 18:03:32.100,3128.4333333333334,-1045.0666666666666,-410.0,5041.833333333333,5719.366666666667
2026-01-08 18:03:32.120,3164.05,-1079.7,-377.5,5041.75,5719.35
2026-01-08 18:03:32.140,3199.666666666667,-1114.3333333333333,-345.0,5041.666666666667,5719.333333333333
2026-01-08 18:03:32.160,3235.2833333333333,-1148.9666666666667,-312.5,5041.583333333333,5719.316666666667
2026-01-08 18:03:32.180,3270.9,-1183.6,-280.0,5041.5,5719.3
2026-01-08 18:03:32.200,3306.5166666666664,-1218.2333333333333,-247.5,5041.416666666667,5719.283333333334
2026-01-08 18:03:32.220,3342.133333333333,-1252.8666666666666,-215.0,5041.333333333333,5719.266666666666
2026-01-08 18:03:32.240,3377.75,-1287.5,-182.5,5041.25,5719.25
2026-01-08 18:03:32.260,3413.366666666667,-1322.1333333333332,-150.0,5041.166666666667,5719.233333333334
2026-01-08 18:03:32.280,3448.9833333333336,-1356.7666666666667,-117.5,5041.083333333333,5719.216666666666
2026-01-08 18:03:32.300,3484.6,-1391.4,-85.0,5041.0,5719.2
2026-01-08 18:03:32.320,3520.2166666666667,-1426.0333333333333,-52.5,5040.916666666667,5719.183333333333
2026-01-08 18:03:32.340,3555.833333333333,-1460.6666666666667,-20.0,5040.833333333333,5719.166666666667
2026-01-08 18:03:32.360,3591.45,-1495.3,12.5,5040.75,5719.15
2026-01-08 18:03:32.380,3627.0666666666666,-1529.9333333333334,45.0,5040.666666666667,5719.133333333333
2026-01-08 18:03:32.400,3662.6833333333334,-1564.5666666666666,77.5,5040.583333333333,5719.116666666667
2026-01-08 18:03:32.420,3698.3,-1599.2,110.0,5040.5,5719.1
2026-01-08 18:03:32.440,3733.916666666667,-1633.8333333333333,142.5,5040.416666666667,5719.083333333333
2026-01-08 18:03:32.460,3769.5333333333333,-1668.4666666666667,175.0,5040.333333333333,5719.066666666667
2026-01-08 18:03:32.480,3805.15,-1703.1,207.5,5040.25,5719.05
2026-01-08 18:03:32.500,3840.766666666667,-1737.7333333333333,240.0,5040.166666666667,5719.033333333334
2026-01-08 18:03:32.520,3876.383333333333,-1772.3666666666666,272.5,5040.083333333333,5719.016666666666
2026-01-08 18:03:32.540,3912.0,-1807.0,305.0,5040.0,5719.0
2026-01-08 18:03:32.560,3911.595238095238,-1756.452380952381,259.76190476190476,5036.857142857143,5716.666666666667
2026-01-08 18:03:32.580,3911.190476190476,-1705.904761904762,214.52380952380952,5033.714285714285,5714.333333333333
2026-01-08 18:03:32.600,3910.785714285714,-1655.357142857143,169.28571428571428,5030.571428571428,5712.0
2026-01-08 18:03:32.620,3910.3809523809523,-1604.8095238095239,124.04761904761904,5027.428571428572,5709.666666666667
2026-01-08 18:03:32.640,3909.9761904761904,-1554.2619047619048,78.8095238095238,5024.285714285715,5707.333333333333
2026-01-08 18:03:32.660,3909.5714285714284,-1503.7142857142858,33.571428571428555,5021.142857142857,5705.0
2026-01-08 18:03:32.680,3909.1666666666665,-1453.1666666666665,-11.666666666666686,5018.0,5702.666666666667
2026-01-08 18:03:32.700,3908.7619047619046,-1402.6190476190477,-56.904761904761926,5014.857142857143,5700.333333333333
2026-01-08 18:03:32.720,3908.3571428571427,-1352.0714285714284,-102.14285714285717,5011.714285714285,5698.0
2026-01-08 18:03:32.740,3907.9523809523807,-1301.5238095238096,-147.3809523809524,5008.571428571428,5695.666666666667
2026-01-08 18:03:32.760,3907.5476190476193,-1250.9761904761904,-192.61904761904765,5005.428571428572,5693.333333333333
2026-01-08 18:03:32.780,3907.1428571428573,-1200.4285714285713,-237.8571428571429,5002.285714285715,5691.0
2026-01-08 18:03:32.800,3906.7380952380954,-1149.8809523809523,-283.0952380952381,4999.142857142857,5688.666666666667
2026-01-08 18:03:32.820,3906.3333333333335,-1099.3333333333333,-328.33333333333337,4996.0,5686.333333333333
2026-01-08 18:03:32.840,3905.9285714285716,-1048.7857142857142,-373.57142857142867,4992.857142857143,5684.0
2026-01-08 18:03:32.860,3905.5238095238096,-998.2380952380952,-418.80952380952385,4989.714285714285,5681.666666666667
2026-01-08 18:03:32.880,3905.1190476190477,-947.6904761904761,-464.04761904761904,4986.571428571428,5679.333333333333
2026-01-08 18:03:32.900,3904.714285714286,-897.1428571428571,-509.28571428571433,4983.428571428572,5677.0
2026-01-08 18:03:32.920,3904.309523809524,-846.5952380952381,-554.5238095238096,4980.285714285715,5674.666666666667
2026-01-08 18:03:32.940,3903.904761904762,-796.047619047619,-599.7619047619048,4977.142857142857,5672.333333333333
2026-01-08 18:03:32.960,3903.5,-745.5,-645.0,4974.0,5670.0
2026-01-08 18:03:32.980,3903.095238095238,-694.952380952381,-690.2380952380953,4970.857142857143,5667.666666666667
2026-01-08 18:03:33.000,3902.690476190476,-644.4047619047619,-735.4761904761906,4967.714285714285,5665.333333333333
2026-01-08 18:03:33.020,3902.285714285714,-593.8571428571427,-780.7142857142858,4964.571428571428,5663.0
2026-01-08 18:03:33.040,3901.8809523809523,-543.3095238095236,-825.952380952381,4961.428571428572,5660.666666666667
2026-01-08 18:03:33.060,3901.4761904761904,-492.7619047619046,-871.1904761904761,4958.285714285715,5658.333333333333
2026-01-08 18:03:33.080,3901.0714285714284,-442.21428571428555,-916.4285714285716,4955.142857142857,5656.0
2026-01-08 18:03:33.100,3900.6666666666665,-391.6666666666665,-961.6666666666667,4952.0,5653.666666666667
2026-01-08 18:03:33.120,3900.2619047619046,-341.1190476190475,-1006.9047619047619,4948.857142857143,5651.333333333333
2026-01-08 18:03:33.140,3899.8571428571427,-290.57142857142844,-1052.1428571428573,4945.714285714285,5649.0
2026-01-08 18:03:33.160,3899.4523809523807,-240.0238095238094,-1097.3809523809525,4942.571428571428,5646.666666666667
2026-01-08 18:03:33.180,3899.0476190476193,-189.47619047619037,-1142.6190476190477,4939.428571428572,5644.333333333333
2026-01-08 18:03:33.200,3898.6428571428573,-138.92857142857133,-1187.857142857143,4936.285714285715,5642.0
2026-01-08 18:03:33.220,3898.2380952380954,-88.3809523809523,-1233.095238095238,4933.142857142857,5639.666666666667
2026-01-08 18:03:33.240,3897.8333333333335,-37.83333333333326,-1278.3333333333335,4930.0,5637.333333333333
2026-01-08 18:03:33.260,3897.4285714285716,12.71428571428578,-1323.5714285714287,4926.857142857143,5635.0
2026-01-08 18:03:33.280,3897.0238095238096,63.261904761904816,-1368.8095238095239,4923.714285714285,5632.666666666667
2026-01-08 18:03:33.300,3896.6190476190477,113.80952380952385,-1414.0476190476193,4920.571428571428,5630.333333333333
2026-01-08 18:03:33.320,3896.214285714286,164.3571428571429,-1459.2857142857144,4917.428571428572,5628.0
2026-01-08 18:03:33.340,3895.809523809524,214.90476190476193,-1504.5238095238096,4914.285714285715,5625.666666666667
2026-01-08 18:03:33.360,3895.404761904762,265.4523809523812,-1549.7619047619048,4911.142857142857,5623.333333333333
2026-01-08 18:03:33.380,3895.0,316.0,-1595.0,4908.0,5621.0
