timestamp,accX,accY,accZ,ppg,spO2
2026-01-08 18:00:56.820,3868.0,287.0,372.0,4867.0,5634.0
2026-01-08 18:00:56.840,3868.9,287.625,371.1,4867.225,5633.475
2026-01-08 18:00:56.860,3869.8,288.25,370.2,4867.45,5632.95
2026-01-08 18:00:56.880,3870.7,288.875,369.3,4867.675,5632.425
2026-01-08 18:00:56.900,3871.6,289.5,368.4,4867.9,5631.9
2026-01-08 18:00:56.920,3872.5,290.125,367.5,4868.125,5631.375
2026-01-08 18:00:56.940,3873.4,290.75,366.6,4868.35,5630.85
2026-01-08 18:00:56.960,3874.3,291.375,365.7,4868.575,5630.325
2026-01-08 18:00:56.980,3875.2,292.0,364.8,4868.8,5629.8
2026-01-08 18:00:57.000,3876.1,292.625,363.9,4869.025,5629.275
2026-01-08 18:00:57.020,3877.0,293.25,363.0,4869.25,5628.75
2026-01-08 18:00:57.040,3877.9,293.875,362.1,4869.475,5628.225
2026-01-08 18:00:57.060,3878.8,294.5,361.2,4869.7,5627.7
2026-01-08 18:00:57.080,3879.7,295.125,360.3,4869.925,5627.175
2026-01-08 18:00:57.100,3880.6,295.75,359.4,4870.15,5626.65
2026-01-08 18:00:57.120,3881.5,296.375,358.5,4870.375,5626.125
2026-01-08 18:00:57.140,3882.4,297.0,357.6,4870.6,5625.6
2026-01-08 18:00:57.160,3883.3,297.625,356.7,4870.825,5625.075
2026-01-08 18:00:57.180,3884.2,298.25,355.8,4871.05,5624.55
2026-01-08 18:00:57.200,3885.1,298.875,354.9,4871.275,5624.025
2026-01-08 18:00:57.220,3886.0,299.5,354.0,4871.5,5623.5
2026-01-08 18:00:57.240,3886.9,300.125,353.1,4871.725,5622.975
2026-01-08 18:00:57.260,3887.8,300.75,352.2,4871.95,5622.45
2026-01-08 18:00:57.280,3888.7,301.375,351.3,4872.175,5621.925
2026-01-08 18:00:57.300,3889.6,302.0,350.4,4872.4,5621.4
2026-01-08 18:00:57.320,3890.5,302.625,349.5,4872.625,5620.875
2026-01-08 18:00:57.340,3891.4,303.25,348.6,4872.85,5620.35
2026-01-08 18:00:57.360,3892.3,303.875,347.7,4873.075,5619.825
2026-01-08 18:00:57.380,3893.2,304.5,346.8,4873.3,5619.3
2026-01-08 18:00:57.400,3894.1,305.125,345.9,4873.525,5618.775
2026-01-08 18:00:57.420,3895.0,305.75,345.0,4873.75,5618.25
2026-01-08 18:00:57.440,3895.9,306.375,344.1,4873.975,5617.725
2026-01-08 18:00:57.460,3896.8,307.0,343.2,4874.2,5617.2
2026-01-08 18:00:57.480,3897.7,307.625,342.3,4874.425,5616.675
2026-01-08 18:00:57.500,3898.6,308.25,341.4,4874.65,5616.15
2026-01-08 18:00:57.520,3899.5,308.875,340.5,4874.875,5615.625
2026-01-08 18:00:57.540,3900.4,309.5,339.6,4875.1,5615.1
2026-01-08 18:00:57.560,3901.3,310.125,338.7,4875.325,5614.575
2026-01-08 18:00:57.580,3902.2,310.75,337.8,4875.55,5614.05
2026-01-08 18:00:57.600,3903.1,311.375,336.9,4875.775,5613.525
2026-01-08 18:00:57.620,3904.0,312.0,336.0,4876.0,5613.0
2026-01-08 18:00:57.640,3904.84,267.78,296.7,4874.96,5613.62
2026-01-08 18:00:57.660,3905.68,223.56,257.4,4873.92,5614.24
2026-01-08 18:00:57.680,3906.52,179.34,218.10000000000002,4872.88,5614.86
2026-01-08 18:00:57.700,3907.36,135.12,178.8,4871.84,5615.48
2026-01-08 18:00:57.720,3908.2,90.9,139.5,4870.8,5616.1
2026-01-08 18:00:57.740,3909.04,46.68000000000001,100.20000000000002,4869.76,5616.72
2026-01-08 18:00:57.760,3909.88,2.4600000000000364,60.900000000000034,4868.72,5617.34
2026-01-08 18:00:57.780,3910.72,-41.75999999999999,21.600000000000023,4867.68,5617.96
2026-01-08 18:00:57.800,3911.56,-85.98000000000002,-17.69999999999999,4866.64,5618.58
2026-01-08 18:00:57.820,3912.4,-130.2,-57.0,4865.6,5619.2
2026-01-08 18:00:57.840,3913.24,-174.41999999999996,-96.29999999999995,4864.56,5619.82
2026-01-08 18:00:57.860,3914.08,-218.64,-135.59999999999997,4863.52,5620.44
2026-01-08 18:00:57.880,3914.92,-262.86,-174.89999999999998,4862.48,5621.06
2026-01-08 18:00:57.900,3915.76,-307.0799999999999,-214.19999999999993,4861.44,5621.68
2026-01-08 18:00:57.920,3916.6,-351.29999999999995,-253.5,4860.4,5622.3
2026-01-08 18:00:57.940,3917.44,-395.52,-292.79999999999995,4859.36,5622.92
2026-01-08 18:00:57.960,3918.28,-439.74,-332.0999999999999,4858.32,5623.54
2026-01-08 18:00:57.980,3919.12,-483.96000000000004,-371.4,4857.28,5624.16
2026-01-08 18:00:58.000,3919.96,-528.18,-410.69999999999993,4856.24,5624.78
2026-01-08 18:00:58.020,3920.8,-572.4,-450.0,4855.2,5625.4
2026-01-08 18:00:58.040,3921.64,-616.62,-489.29999999999995,4854.16,5626.02
2026-01-08 18:00:58.060,3922.48,-660.8399999999999,-528.5999999999999,4853.12,5626.64
2026-01-08 18:00:58.080,3923.32,-705.06,-567.9,4852.08,5627.26
2026-01-08 18:00:58.100,3924.16,-749.28,-607.1999999999999,4851.04,5627.88
2026-01-08 18:00:58.120,3925.0,-793.5,-646.4999999999999,4850.0,5628.5
2026-01-08 18:00:58.140,3925.84,-837.72,-685.8,4848.96,5629.12
2026-01-08 18:00:58.160,3926.68,-881.94,-725.0999999999999,4847.92,5629.74
2026-01-08 18:00:58.180,3927.52,-926.1599999999999,-764.3999999999999,4846.88,5630.36
2026-01-08 18:00:58.200,3928.36,-970.3799999999999,-803.6999999999998,4845.84,5630.98
2026-01-08 18:00:58.220,3929.2,-1014.5999999999999,-843.0,4844.8,5631.6
2026-01-08 18:00:58.240,3930.04,-1058.82,-882.3,4843.76,5632.22
2026-01-08 18:00:58.260,3930.88,-1103.04,-921.5999999999999,4842.72,5632.84
2026-01-08 18:00:58.280,3931.72,-1147.26,-960.8999999999999,4841.68,5633.46
2026-01-08 18:00:58.300,3932.56,-1191.48,-1000.1999999999998,4840.64,5634.08
2026-01-08 18:00:58.320,3933.4,-1235.7,-1039.5,4839.6,5634.7
2026-01-08 18:00:58.340,3934.24,-1279.92,-1078.8,4838.56,5635.32
2026-01-08 18:00:58.360,3935.08,-1324.1399999999999,-1118.1,4837.52,5635.94
2026-01-08 18:00:58.380,3935.92,-1368.36,-1157.3999999999999,4836.48,5636.56
2026-01-08 18:00:58.400,3936.76,-1412.58,-1196.6999999999998,4835.44,5637.18
2026-01-08 18:00:58.420,3937.6,-1456.8,-1236.0,4834.4,5637.8
2026-01-08 18:00:58.440,3938.44,-1501.02,-1275.3,4833.36,5638.42
2026-01-08 18:00:58.460,3939.28,-1545.24,-1314.6,4832.32,5639.04
2026-01-08 18:00:58.480,3940.12,-1589.46,-1353.8999999999999,4831.28,5639.66
2026-01-08 18:00:58.500,3940.96,-1633.6799999999998,-1393.1999999999998,4830.24,5640.28
2026-01-08 18:00:58.520,3941.8,-1677.8999999999999,-1432.4999999999998,4829.2,5640.9
2026-01-08 18:00:58.540,3942.64,-1722.12,-1471.8,4828.16,5641.52
2026-01-08 18:00:58.560,3943.48,-1766.3400000000001,-1511.1,4827.12,5642.14
2026-01-08 18:00:58.580,3944.32,-1810.56,-1550.3999999999999,4826.08,5642.76
2026-01-08 18:00:58.600,3945.16,-1854.7799999999997,-1589.6999999999998,4825.04,5643.38
2026-01-08 18:00:58.620,3946.0,-1899.0,-1629.0,4824.0,5644.0
2026-01-08 18:00:58.640,3944.6938775510203,-1853.6530612244899,-1627.9591836734694,4823.734693877551,5644.714285714285
2026-01-08 18:00:58.660,3943.387755102041,-1808.3061224489795,-1626.9183673469388,4823.469387755102,5645.428571428572
2026-01-08 18:00:58.680,3942.081632653061,-1762.9591836734694,-1625.8775510204082,4823.2040816326535,5646.142857142857
2026-01-08 18:00:58.700,3940.7755102040815,-1717.6122448979593,-1624.8367346938776,4822.938775510204,5646.857142857143
2026-01-08 18:00:58.720,3939.469387755102,-1672.265306122449,-1623.795918367347,4822.673469387755,5647.571428571428
2026-01-08 18:00:58.740,3938.1632653061224,-1626.9183673469388,-1622.7551020408164,4822.408163265306,5648.285714285715
2026-01-08 18:00:58.760,3936.8571428571427,-1581.5714285714284,-1621.7142857142858,4822.142857142857,5649.0
2026-01-08 18:00:58.780,3935.5510204081634,-1536.2244897959183,-1620.6734693877552,4821.877551020408,5649.714285714285
2026-01-08 18:00:58.800,3934.2448979591836,-1490.8775510204082,-1619.6326530612246,4821.6122448979595,5650.428571428572
2026-01-08 18:00:58.820,3932.938775510204,-1445.5306122448978,-1618.591836734694,4821.34693877551,5651.142857142857
2026-01-08 18:00:58.840,3931.6326530612246,-1400.1836734693877,-1617.5510204081634,4821.081632653061,5651.857142857143
2026-01-08 18:00:58.860,3930.326530612245,-1354.8367346938776,-1616.5102040816328,4820.816326530612,5652.571428571428
2026-01-08 18:00:58.880,3929.0204081632655,-1309.4897959183672,-1615.469387755102,4820.551020408163,5653.285714285715
2026-01-08 18:00:58.900,3927.714285714286,-1264.142857142857,-1614.4285714285713,4820.285714285715,5654.0
2026-01-08 18:00:58.920,3926.408163265306,-1218.795918367347,-1613.3877551020407,4820.0204081632655,5654.714285714285
2026-01-08 18:00:58.940,3925.1020408163267,-1173.4489795918366,-1612.3469387755101,4819.755102040816,5655.428571428572
2026-01-08 18:00:58.960,3923.795918367347,-1128.1020408163265,-1611.3061224489795,4819.489795918367,5656.142857142857
2026-01-08 18:00:58.980,3922.4897959183672,-1082.7551020408164,-1610.265306122449,4819.224489795918,5656.857142857143
2026-01-08 18:00:59.000,3921.183673469388,-1037.408163265306,-1609.2244897959183,4818.959183673469,5657.571428571428
2026-01-08 18:00:59.020,3919.877551020408,-992.0612244897959,-1608.1836734693877,4818.693877551021,5658.285714285715
2026-01-08 18:00:59.040,3918.5714285714284,-946.7142857142858,-1607.142857142857,4818.428571428572,5659.0
2026-01-08 18:00:59.060,3917.265306122449,-901.3673469387755,-1606.1020408163265,4818.163265306122,5659.714285714285
2026-01-08 18:00:59.080,3915.9591836734694,-856.0204081632653,-1605.061224489796,4817.897959183673,5660.428571428572
2026-01-08 18:00:59.100,3914.6530612244896,-810.6734693877552,-1604.0204081632653,4817.632653061224,5661.142857142857
2026-01-08 18:00:59.120,3913.3469387755104,-765.3265306122448,-1602.9795918367347,4817.367346938776,5661.857142857143
2026-01-08 18:00:59.140,3912.0408163265306,-719.9795918367347,-1601.938775510204,4817.102040816327,5662.571428571428
2026-01-08 18:00:59.160,3910.734693877551,-674.6326530612246,-1600.8979591836735,4816.836734693878,5663.285714285715
2026-01-08 18:00:59.180,3909.4285714285716,-629.2857142857142,-1599.857142857143,4816.571428571428,5664.0
2026-01-08 18:00:59.200,3908.122448979592,-583.9387755102041,-1598.8163265306123,4816.306122448979,5664.714285714285
2026-01-08 18:00:59.220,3906.816326530612,-538.591836734694,-1597.7755102040817,4816.040816326531,5665.428571428572
2026-01-08 18:00:59.240,3905.5102040816328,-493.2448979591836,-1596.734693877551,4815.775510204082,5666.142857142857
2026-01-08 18:00:59.260,3904.204081632653,-447.8979591836735,-1595.6938775510205,4815.510204081633,5666.857142857143
2026-01-08 18:00:59.280,3902.8979591836733,-402.55102040816337,-1594.6530612244899,4815.244897959184,5667.571428571428
2026-01-08 18:00:59.300,3901.591836734694,-357.204081632653,-1593.6122448979593,4814.9795918367345,5668.285714285715
2026-01-08 18:00:59.320,3900.285714285714,-311.8571428571429,-1592.5714285714287,4814.714285714285,5669.0
2026-01-08 18:00:59.340,3898.9795918367345,-266.51020408163276,-1591.530612244898,4814.448979591837,5669.714285714285
2026-01-08 18:00:59.360,3897.673469387755,-221.1632653061224,-1590.4897959183672,4814.183673469388,5670.428571428572
2026-01-08 18:00:59.380,3896.3673469387754,-175.8163265306123,-1589.4489795918366,4813.918367346939,5671.142857142857
2026-01-08 18:00:59.400,3895.061224489796,-130.46938775510216,-1588.408163265306,4813.65306122449,5671.857142857143
2026-01-08 18:00:59.420,3893.7551020408164,-85.12244897959181,-1587.3673469387754,4813.3877551020405,5672.571428571428
2026-01-08 18:00:59.440,3892.4489795918366,-39.775510204081684,-1586.3265306122448,4813.122448979592,5673.285714285715
2026-01-08 18:00:59.460,3891.1428571428573,5.5714285714284415,-1585.2857142857142,4812.857142857143,5674.0
2026-01-08 18:00:59.480,3889.8367346938776,50.918367346938794,-1584.2448979591836,4812.591836734694,5674.714285714285
2026-01-08 18:00:59.500,3888.530612244898,96.26530612244892,-1583.204081632653,4812.326530612245,5675.428571428572
2026-01-08 18:00:59.520,3887.2244897959185,141.61224489795904,-1582.1632653061224,4812.061224489796,5676.142857142857
2026-01-08 18:00:59.540,3885.918367346939,186.9591836734694,-1581.1224489795918,4811.7959183673465,5676.857142857143
2026-01-08 18:00:59.560,3884.612244897959,232.30612244897975,-1580.0816326530612,4811.530612244898,5677.571428571428
2026-01-08 18:00:59.580,3883.3061224489797,277.65306122448965,-1579.0408163265306,4811.265306122449,5678.285714285715
2026-01-08 18:00:59.600,3882.0,323.0,-1578.0,4811.0,5679.0
2026-01-08 18:00:59.620,3881.980769230769,322.9807692307692,-1579.6538461538462,4809.634615384615,5678.615384615385
2026-01-08 18:00:59.640,3881.9615384615386,322.96153846153845,-1581.3076923076924,4808.2692307692305,5678.2307692307695
2026-01-08 18:00:59.660,3881.9423076923076,322.9423076923077,-1582.9615384615386,4806.903846153846,5677.846153846154
2026-01-08 18:00:59.680,3881.923076923077,322.9230769230769,-1584.6153846153845,4805.538461538462,5677.461538461538
2026-01-08 18:00:59.700,3881.903846153846,322.90384615384613,-1586.2692307692307,4804.173076923077,5677.076923076923
2026-01-08 18:00:59.720,3881.8846153846152,322.88461538461536,-1587.923076923077,4802.807692307692,5676.692307692308
2026-01-08 18:00:59.740,3881.8653846153848,322.86538461538464,-1589.576923076923,4801.442307692308,5676.307692307692
2026-01-08 18:00:59.760,3881.846153846154,322.84615384615387,-1591.2307692307693,4800.076923076923,5675.923076923077
2026-01-08 18:00:59.780,3881.826923076923,322.8269230769231,-1592.8846153846155,4798.711538461538,5675.538461538462
2026-01-08 18:00:59.800,3881.8076923076924,322.8076923076923,-1594.5384615384614,4797.346153846154,5675.153846153846
2026-01-08 18:00:59.820,3881.7884615384614,322.78846153846155,-1596.1923076923076,4795.9807692307695,5674.7692307692305
2026-01-08 18:00:59.840,3881.769230769231,322.7692307692308,-1597.8461538461538,4794.615384615385,5674.384615384615
2026-01-08 18:00:59.860,3881.75,322.75,-1599.5,4793.25,5674.0
2026-01-08 18:00:59.880,3881.730769230769,322.7307692307692,-1601.1538461538462,4791.884615384615,5673.615384615385
2026-01-08 18:00:59.900,3881.7115384615386,322.71153846153845,-1602.8076923076924,4790.5192307692305,5673.2307692307695
2026-01-08 18:00:59.920,3881.6923076923076,322.6923076923077,-1604.4615384615386,4789.153846153846,5672.846153846154
2026-01-08 18:00:59.940,3881.673076923077,322.6730769230769,-1606.1153846153845,4787.788461538462,5672.461538461538
2026-01-08 18:00:59.960,3881.653846153846,322.65384615384613,-1607.7692307692307,4786.423076923077,5672.076923076923
2026-01-08 18:00:59.980,3881.6346153846152,322.63461538461536,-1609.423076923077,4785.057692307692,5671.692307692308
2026-01-08 18:01:00.000,3881.6153846153848,322.61538461538464,-1611.076923076923,4783.692307692308,5671.307692307692
2026-01-08 18:01:00.020,3881.596153846154,322.59615384615387,-1612.7307692307693,4782.326923076923,5670.923076923077
2026-01-08 18:01:00.040,3881.576923076923,322.5769230769231,-1614.3846153846155,4780.961538461538,5670.538461538462
2026-01-08 18:01:00.060,3881.5576923076924,322.5576923076923,-1616.0384615384614,4779.596153846154,5670.153846153846
2026-01-08 18:01:00.080,3881.5384615384614,322.53846153846155,-1617.6923076923076,4778.2307692307695,5669.7692307692305
2026-01-08 18:01:00.100,3881.519230769231,322.5192307692308,-1619.3461538461538,4776.865384615385,5669.384615384615
2026-01-08 18:01:00.120,3881.5,322.5,-1621.0,4775.5,5669.0
2026-01-08 18:01:00.140,3881.480769230769,322.4807692307692,-1622.6538461538462,4774.134615384615,5668.615384615385
2026-01-08 18:01:00.160,3881.4615384615386,322.46153846153845,-1624.3076923076924,4772.7692307692305,5668.2307692307695
2026-01-08 18:01:00.180,3881.4423076923076,322.4423076923077,-1625.9615384615386,4771.403846153846,5667.846153846154
2026-01-08 18:01:00.200,3881.423076923077,322.4230769230769,-1627.6153846153845,4770.038461538462,5667.461538461538
2026-01-08 18:01:00.220,3881.403846153846,322.40384615384613,-1629.2692307692307,4768.673076923077,5667.076923076923
2026-01-08 18:01:00.240,3881.3846153846152,322.38461538461536,-1630.923076923077,4767.307692307692,5666.692307692308
2026-01-08 18:01:00.260,3881.3653846153848,322.36538461538464,-1632.576923076923,4765.942307692308,5666.307692307692
2026-01-08 18:01:00.280,3881.346153846154,322.34615384615387,-1634.2307692307693,4764.576923076923,5665.923076923077
2026-01-08 18:01:00.300,3881.326923076923,322.3269230769231,-1635.8846153846155,4763.211538461538,5665.538461538462
2026-01-08 18:01:00.320,3881.3076923076924,322.3076923076923,-1637.5384615384614,4761.846153846154,5665.153846153846
2026-01-08 18:01:00.340,3881.2884615384614,322.28846153846155,-1639.1923076923076,4760.4807692307695,5664.7692307692305
2026-01-08 18:01:00.360,3881.269230769231,322.2692307692308,-1640.8461538461538,4759.115384615385,5664.384615384615
2026-01-08 18:01:00.380,3881.25,322.25,-1642.5,4757.75,5664.0
2026-01-08 18:01:00.400,3881.230769230769,322.2307692307692,-1644.1538461538462,4756.384615384615,5663.615384615385
2026-01-08 18:01:00.420,3881.2115384615386,322.21153846153845,-1645.8076923076924,4755.0192307692305,5663.2307692307695
2026-01-08 18:01:00.440,3881.1923076923076,322.1923076923077,-1647.4615384615386,4753.653846153846,5662.846153846154
2026-01-08 18:01:00.460,3881.173076923077,322.1730769230769,-1649.1153846153845,4752.288461538462,5662.461538461538
2026-01-08 18:01:00.480,3881.153846153846,322.15384615384613,-1650.7692307692307,4750.923076923077,5662.076923076923
2026-01-08 18:01:00.500,3881.1346153846152,322.13461538461536,-1652.423076923077,4749.557692307692,5661.692307692308
2026-01-08 18:01:00.520,3881.1153846153848,322.11538461538464,-1654.076923076923,4748.192307692308,5661.307692307692
2026-01-08 18:01:00.540,3881.096153846154,322.09615384615387,-1655.7307692307693,4746.826923076923,5660.923076923077
2026-01-08 18:01:00.560,3881.076923076923,322.0769230769231,-1657.3846153846155,4745.461538461538,5660.538461538462
2026-01-08 18:01:00.580,3881.0576923076924,322.0576923076923,-1659.0384615384614,4744.096153846154,5660.153846153846
2026-01-08 18:01:00.600,3881.0384615384614,322.03846153846155,-1660.6923076923076,4742.7307692307695,5659.7692307692305
2026-01-08 18:01:00.620,3881.019230769231,322.0192307692308,-1662.3461538461538,4741.365384615385,5659.384615384615
2026-01-08 18:01:00.640,3881.0,322.0,-1664.0,4740.0,5659.0
2026-01-08 18:01:00.660,3881.14,321.42,-1662.64,4738.816326530612,5659.0204081632655
2026-01-08 18:01:00.680,3881.28,320.84,-1661.28,4737.632653061224,5659.040816326531
2026-01-08 18:01:00.700,3881.42,320.26,-1659.92,4736.448979591837,5659.061224489796
2026-01-08 18:01:00.720,3881.56,319.68,-1658.56,4735.265306122449,5659.081632653061
2026-01-08 18:01:00.740,3881.7,319.1,-1657.2,4734.081632653061,5659.102040816327
2026-01-08 18:01:00.760,3881.84,318.52,-1655.84,4732.897959183673,5659.122448979592
2026-01-08 18:01:00.780,3881.98,317.94,-1654.48,4731.714285714285,5659.142857142857
2026-01-08 18:01:00.800,3882.12,317.36,-1653.12,4730.530612244898,5659.163265306122
2026-01-08 18:01:00.820,3882.26,316.78,-1651.76,4729.34693877551,5659.183673469388
2026-01-08 18:01:00.840,3882.4,316.2,-1650.4,4728.163265306122,5659.2040816326535
2026-01-08 18:01:00.860,3882.54,315.62,-1649.04,4726.9795918367345,5659.224489795918
2026-01-08 18:01:00.880,3882.68,315.04,-1647.68,4725.7959183673465,5659.244897959184
2026-01-08 18:01:00.900,3882.82,314.46,-1646.32,4724.6122448979595,5659.265306122449
2026-01-08 18:01:00.920,3882.96,313.88,-1644.96,4723.428571428572,5659.285714285715
2026-01-08 18:01:00.940,3883.1,313.3,-1643.6,4722.244897959184,5659.306122448979
2026-01-08 18:01:00.960,3883.24,312.72,-1642.24,4721.061224489796,5659.326530612245
2026-01-08 18:01:00.980,3883.38,312.14,-1640.88,4719.877551020408,5659.34693877551
2026-01-08 18:01:01.000,3883.52,311.56,-1639.52,4718.693877551021,5659.367346938776
2026-01-08 18:01:01.020,3883.66,310.98,-1638.16,4717.510204081633,5659.3877551020405
2026-01-08 18:01:01.040,3883.8,310.4,-1636.8,4716.326530612245,5659.408163265306
2026-01-08 18:01:01.060,3883.94,309.82,-1635.44,4715.142857142857,5659.428571428572
2026-01-08 18:01:01.080,3884.08,309.24,-1634.08,4713.959183673469,5659.448979591837
2026-01-08 18:01:01.100,3884.22,308.66,-1632.72,4712.775510204082,5659.469387755102
2026-01-08 18:01:01.120,3884.36,308.08,-1631.36,4711.591836734694,5659.489795918367
2026-01-08 18:01:01.140,3884.5,307.5,-1630.0,4710.408163265306,5659.510204081633
2026-01-08 18:01:01.160,3884.64,306.92,-1628.64,4709.224489795918,5659.530612244898
2026-01-08 18:01:01.180,3884.78,306.34,-1627.28,4708.040816326531,5659.551020408163
2026-01-08 18:01:01.200,3884.92,305.76,-1625.92,4706.857142857143,5659.571428571428
2026-01-08 18:01:01.220,3885.06,305.18,-1624.56,4705.673469387755,5659.591836734694
2026-01-08 18:01:01.240,3885.2,304.6,-1623.2,4704.489795918367,5659.6122448979595
2026-01-08 18:01:01.260,3885.34,304.02,-1621.84,4703.306122448979,5659.632653061224
2026-01-08 18:01:01.280,3885.48,303.44,-1620.48,4702.122448979592,5659.65306122449
2026-01-08 18:01:01.300,3885.62,302.86,-1619.12,4700.938775510204,5659.673469387755
2026-01-08 18:01:01.320,3885.76,302.28,-1617.76,4699.755102040816,5659.693877551021
2026-01-08 18:01:01.340,3885.9,301.7,-1616.4,4698.571428571428,5659.714285714285
2026-01-08 18:01:01.360,3886.04,301.12,-1615.04,4697.3877551020405,5659.734693877551
2026-01-08 18:01:01.380,3886.18,300.54,-1613.68,4696.2040816326535,5659.755102040816
2026-01-08 18:01:01.400,3886.32,299.96,-1612.32,4695.0204081632655,5659.775510204082
2026-01-08 18:01:01.420,3886.46,299.38,-1610.96,4693.836734693878,5659.7959183673465
2026-01-08 18:01:01.440,3886.6,298.8,-1609.6,4692.65306122449,5659.816326530612
2026-01-08 18:01:01.460,3886.74,298.22,-1608.24,4691.469387755102,5659.836734693878
2026-01-08 18:01:01.480,3886.88,297.64,-1606.88,4690.285714285715,5659.857142857143
2026-01-08 18:01:01.500,3887.02,297.06,-1605.52,4689.102040816327,5659.877551020408
2026-01-08 18:01:01.520,3887.16,296.48,-1604.16,4687.918367346939,5659.897959183673
2026-01-08 18:01:01.540,3887.3,295.9,-1602.8,4686.734693877551,5659.918367346939
2026-01-08 18:01:01.560,3887.44,295.32,-1601.44,4685.551020408163,5659.938775510204
2026-01-08 18:01:01.580,3887.58,294.74,-1600.08,4684.367346938776,5659.959183673469
2026-01-08 18:01:01.600,3887.72,294.16,-1598.72,4683.183673469388,5659.9795918367345
2026-01-08 18:01:01.620,3887.86,293.58,-1597.36,4682.0,5660.0
2026-01-08 18:01:01.640,3888.0,293.0,-1596.0,4684.16,5660.1
2026-01-08 18:01:01.660,3887.918367346939,249.67346938775512,-1596.734693877551,4686.32,5660.2
2026-01-08 18:01:01.680,3887.8367346938776,206.3469387755102,-1597.469387755102,4688.48,5660.3
2026-01-08 18:01:01.700,3887.7551020408164,163.0204081632653,-1598.204081632653,4690.64,5660.4
2026-01-08 18:01:01.720,3887.673469387755,119.69387755102042,-1598.938775510204,4692.8,5660.5
2026-01-08 18:01:01.740,3887.591836734694,76.36734693877554,-1599.6734693877552,4694.96,5660.6
2026-01-08 18:01:01.760,3887.5102040816328,33.0408163265306,-1600.408163265306,4697.12,5660.7
2026-01-08 18:01:01.780,3887.4285714285716,-10.285714285714278,-1601.142857142857,4699.28,5660.8
2026-01-08 18:01:01.800,3887.3469387755104,-53.61224489795916,-1601.8775510204082,4701.44,5660.9
2026-01-08 18:01:01.820,3887.265306122449,-96.93877551020404,-1602.6122448979593,4703.6,5661.0
2026-01-08 18:01:01.840,3887.183673469388,-140.26530612244892,-1603.3469387755101,4705.76,5661.1
2026-01-08 18:01:01.860,3887.1020408163267,-183.59183673469386,-1604.0816326530612,4707.92,5661.2
2026-01-08 18:01:01.880,3887.0204081632655,-226.9183673469388,-1604.8163265306123,4710.08,5661.3
2026-01-08 18:01:01.900,3886.938775510204,-270.2448979591836,-1605.5510204081634,4712.24,5661.4
2026-01-08 18:01:01.920,3886.8571428571427,-313.57142857142856,-1606.2857142857142,4714.4,5661.5
2026-01-08 18:01:01.940,3886.7755102040815,-356.8979591836734,-1607.0204081632653,4716.56,5661.6
2026-01-08 18:01:01.960,3886.6938775510203,-400.2244897959183,-1607.7551020408164,4718.72,5661.7
2026-01-08 18:01:01.980,3886.612244897959,-443.55102040816325,-1608.4897959183672,4720.88,5661.8
2026-01-08 18:01:02.000,3886.530612244898,-486.8775510204081,-1609.2244897959183,4723.04,5661.9
2026-01-08 18:01:02.020,3886.4489795918366,-530.204081632653,-1609.9591836734694,4725.2,5662.0
2026-01-08 18:01:02.040,3886.3673469387754,-573.5306122448978,-1610.6938775510205,4727.36,5662.1
2026-01-08 18:01:02.060,3886.285714285714,-616.8571428571428,-1611.4285714285713,4729.52,5662.2
2026-01-08 18:01:02.080,3886.204081632653,-660.1836734693877,-1612.1632653061224,4731.68,5662.3
2026-01-08 18:01:02.100,3886.122448979592,-703.5102040816325,-1612.8979591836735,4733.84,5662.4
2026-01-08 18:01:02.120,3886.0408163265306,-746.8367346938776,-1613.6326530612246,4736.0,5662.5
2026-01-08 18:01:02.140,3885.9591836734694,-790.1632653061224,-1614.3673469387754,4738.16,5662.6
2026-01-08 18:01:02.160,3885.877551020408,-833.4897959183672,-1615.1020408163265,4740.32,5662.7
2026-01-08 18:01:02.180,3885.795918367347,-876.8163265306121,-1615.8367346938776,4742.48,5662.8
2026-01-08 18:01:02.200,3885.714285714286,-920.1428571428571,-1616.5714285714287,4744.64,5662.9
2026-01-08 18:01:02.220,3885.6326530612246,-963.4693877551019,-1617.3061224489795,4746.8,5663.0
2026-01-08 18:01:02.240,3885.5510204081634,-1006.7959183673468,-1618.0408163265306,4748.96,5663.1
2026-01-08 18:01:02.260,3885.469387755102,-1050.1224489795918,-1618.7755102040817,4751.12,5663.2
2026-01-08 18:01:02.280,3885.387755102041,-1093.4489795918366,-1619.5102040816328,4753.28,5663.3
2026-01-08 18:01:02.300,3885.3061224489797,-1136.7755102040815,-1620.2448979591836,4755.44,5663.4
2026-01-08 18:01:02.320,3885.2244897959185,-1180.1020408163265,-1620.9795918367347,4757.6,5663.5
2026-01-08 18:01:02.340,3885.1428571428573,-1223.4285714285713,-1621.7142857142858,4759.76,5663.6
2026-01-08 18:01:02.360,3885.061224489796,-1266.7551020408162,-1622.4489795918366,4761.92,5663.7
2026-01-08 18:01:02.380,3884.9795918367345,-1310.0816326530612,-1623.1836734693877,4764.08,5663.8
2026-01-08 18:01:02.400,3884.8979591836733,-1353.408163265306,-1623.9183673469388,4766.24,5663.9
2026-01-08 18:01:02.420,3884.816326530612,-1396.7346938775509,-1624.6530612244899,4768.4,5664.0
2026-01-08 18:01:02.440,3884.734693877551,-1440.0612244897957,-1625.3877551020407,4770.56,5664.1
2026-01-08 18:01:02.460,3884.6530612244896,-1483.3877551020407,-1626.1224489795918,4772.72,5664.2
2026-01-08 18:01:02.480,3884.5714285714284,-1526.7142857142856,-1626.857142857143,4774.88,5664.3
2026-01-08 18:01:02.500,3884.4897959183672,-1570.0408163265304,-1627.591836734694,4777.04,5664.4
2026-01-08 18:01:02.520,3884.408163265306,-1613.3673469387754,-1628.3265306122448,4779.2,5664.5
2026-01-08 18:01:02.540,3884.326530612245,-1656.6938775510203,-1629.061224489796,4781.36,5664.6
2026-01-08 18:01:02.560,3884.2448979591836,-1700.020408163265,-1629.795918367347,4783.52,5664.7
2026-01-08 18:01:02.580,3884.1632653061224,-1743.3469387755101,-1630.530612244898,4785.68,5664.8
2026-01-08 18:01:02.600,3884.081632653061,-1786.6734693877552,-1631.265306122449,4787.84,5664.9
2026-01-08 18:01:02.620,3884.0,-1830.0,-1632.0,4790.0,5665.0
2026-01-08 18:01:02.640,3884.94,-1829.28,-1632.6,4788.18,5664.96
2026-01-08 18:01:02.660,3885.88,-1828.56,-1633.2,4786.36,5664.92
2026-01-08 18:01:02.680,3886.82,-1827.84,-1633.8,4784.54,5664.88
2026-01-08 18:01:02.700,3887.76,-1827.12,-1634.4,4782.72,5664.84
2026-01-08 18:01:02.720,3888.7,-1826.4,-1635.0,4780.9,5664.8
2026-01-08 18:01:02.740,3889.64,-1825.68,-1635.6,4779.08,5664.76
2026-01-08 18:01:02.760,3890.58,-1824.96,-1636.2,4777.26,5664.72
2026-01-08 18:01:02.780,3891.52,-1824.24,-1636.8,4775.44,5664.68
2026-01-08 18:01:02.800,3892.46,-1823.52,-1637.4,4773.62,5664.64
2026-01-08 18:01:02.820,3893.4,-1822.8,-1638.0,4771.8,5664.6
2026-01-08 18:01:02.840,3894.34,-1822.08,-1638.6,4769.98,5664.56
2026-01-08 18:01:02.860,3895.28,-1821.36,-1639.2,4768.16,5664.52
2026-01-08 18:01:02.880,3896.22,-1820.64,-1639.8,4766.34,5664.48
2026-01-08 18:01:02.900,3897.16,-1819.92,-1640.4,4764.52,5664.44
2026-01-08 18:01:02.920,3898.1,-1819.2,-1641.0,4762.7,5664.4
2026-01-08 18:01:02.940,3899.04,-1818.48,-1641.6,4760.88,5664.36
2026-01-08 18:01:02.960,3899.98,-1817.76,-1642.2,4759.06,5664.32
2026-01-08 18:01:02.980,3900.92,-1817.04,-1642.8,4757.24,5664.28
2026-01-08 18:01:03.000,3901.86,-1816.32,-1643.4,4755.42,5664.24
2026-01-08 18:01:03.020,3902.8,-1815.6,-1644.0,4753.6,5664.2
2026-01-08 18:01:03.040,3903.74,-1814.88,-1644.6,4751.78,5664.16
2026-01-08 18:01:03.060,3904.68,-1814.16,-1645.2,4749.96,5664.12
2026-01-08 18:01:03.080,3905.62,-1813.44,-1645.8,4748.14,5664.08
2026-01-08 18:01:03.100,3906.56,-1812.72,-1646.4,4746.32,5664.04
2026-01-08 18:01:03.120,3907.5,-1812.0,-1647.0,4744.5,5664.0
2026-01-08 18:01:03.140,3908.44,-1811.28,-1647.6,4742.68,5663.96
2026-01-08 18:01:03.160,3909.38,-1810.56,-1648.2,4740.86,5663.92
2026-01-08 18:01:03.180,3910.32,-1809.84,-1648.8,4739.04,5663.88
2026-01-08 18:01:03.200,3911.26,-1809.12,-1649.4,4737.22,5663.84
2026-01-08 18:01:03.220,3912.2,-1808.4,-1650.0,4735.4,5663.8
2026-01-08 18:01:03.240,3913.14,-1807.68,-1650.6,4733.58,5663.76
2026-01-08 18:01:03.260,3914.08,-1806.96,-1651.2,4731.76,5663.72
2026-01-08 18:01:03.280,3915.02,-1806.24,-1651.8,4729.94,5663.68
2026-01-08 18:01:03.300,3915.96,-1805.52,-1652.4,4728.12,5663.64
2026-01-08 18:01:03.320,3916.9,-1804.8,-1653.0,4726.3,5663.6
2026-01-08 18:01:03.340,3917.84,-1804.08,-1653.6,4724.48,5663.56
2026-01-08 18:01:03.360,3918.78,-1803.36,-1654.2,4722.66,5663.52
2026-01-08 18:01:03.380,3919.72,-1802.64,-1654.8,4720.84,5663.48
2026-01-08 18:01:03.400,3920.66,-1801.92,-1655.4,4719.02,5663.44
2026-01-08 18:01:03.420,3921.6,-1801.2,-1656.0,4717.2,5663.4
2026-01-08 18:01:03.440,3922.54,-1800.48,-1656.6,4715.38,5663.36
2026-01-08 18:01:03.460,3923.48,-1799.76,-1657.2,4713.56,5663.32
2026-01-08 18:01:03.480,3924.42,-1799.04,-1657.8,4711.74,5663.28
2026-01-08 18:01:03.500,3925.36,-1798.32,-1658.4,4709.92,5663.24
2026-01-08 18:01:03.520,3926.3,-1797.6,-1659.0,4708.1,5663.2
2026-01-08 18:01:03.540,3927.24,-1796.88,-1659.6,4706.28,5663.16
2026-01-08 18:01:03.560,3928.18,-1796.16,-1660.2,4704.46,5663.12
2026-01-08 18:01:03.580,3929.12,-1795.44,-1660.8,4702.64,5663.08
2026-01-08 18:01:03.600,3930.06,-1794.72,-1661.4,4700.82,5663.04
2026-01-08 18:01:03.620,3931.0,-1794.0,-1662.0,4699.0,5663.0
2026-01-08 18:01:03.640,3892.4901960784314,-1758.0392156862745,-1661.4901960784314,4700.196078431372,5663.265306122449
2026-01-08 18:01:03.660,3853.9803921568628,-1722.078431372549,-1660.9803921568628,4701.392156862745,5663.530612244898
2026-01-08 18:01:03.680,3815.470588235294,-1686.1176470588234,-1660.4705882352941,4702.588235294118,5663.7959183673465
2026-01-08 18:01:03.700,3776.9607843137255,-1650.1568627450981,-1659.9607843137255,4703.78431372549,5664.061224489796
2026-01-08 18:01:03.720,3738.450980392157,-1614.1960784313726,-1659.450980392157,4704.980392156863,5664.326530612245
2026-01-08 18:01:03.740,3699.9411764705883,-1578.235294117647,-1658.9411764705883,4706.176470588235,5664.591836734694
2026-01-08 18:01:03.760,3661.4313725490197,-1542.2745098039215,-1658.4313725490197,4707.3725490196075,5664.857142857143
2026-01-08 18:01:03.780,3622.921568627451,-1506.313725490196,-1657.921568627451,4708.568627450981,5665.122448979592
2026-01-08 18:01:03.800,3584.4117647058824,-1470.3529411764707,-1657.4117647058824,4709.764705882353,5665.3877551020405
2026-01-08 18:01:03.820,3545.901960784314,-1434.3921568627452,-1656.9019607843138,4710.9607843137255,5665.65306122449
2026-01-08 18:01:03.840,3507.392156862745,-1398.4313725490197,-1656.3921568627452,4712.156862745098,5665.918367346939
2026-01-08 18:01:03.860,3468.8823529411766,-1362.4705882352941,-1655.8823529411766,4713.35294117647,5666.183673469388
2026-01-08 18:01:03.880,3430.372549019608,-1326.5098039215686,-1655.3725490196077,4714.549019607844,5666.448979591837
2026-01-08 18:01:03.900,3391.8627450980393,-1290.549019607843,-1654.862745098039,4715.745098039216,5666.714285714285
2026-01-08 18:01:03.920,3353.3529411764707,-1254.5882352941176,-1654.3529411764705,4716.941176470588,5666.9795918367345
2026-01-08 18:01:03.940,3314.843137254902,-1218.627450980392,-1653.8431372549019,4718.137254901961,5667.244897959184
2026-01-08 18:01:03.960,3276.3333333333335,-1182.6666666666665,-1653.3333333333333,4719.333333333333,5667.510204081633
2026-01-08 18:01:03.980,3237.823529411765,-1146.7058823529412,-1652.8235294117646,4720.529411764706,5667.775510204082
2026-01-08 18:01:04.000,3199.3137254901962,-1110.7450980392157,-1652.313725490196,4721.725490196079,5668.040816326531
2026-01-08 18:01:04.020,3160.8039215686276,-1074.7843137254902,-1651.8039215686274,4722.921568627451,5668.306122448979
2026-01-08 18:01:04.040,3122.294117647059,-1038.8235294117649,-1651.2941176470588,4724.117647058823,5668.571428571428
2026-01-08 18:01:04.060,3083.7843137254904,-1002.8627450980392,-1650.7843137254902,4725.313725490196,5668.836734693878
2026-01-08 18:01:04.080,3045.274509803922,-966.9019607843137,-1650.2745098039215,4726.509803921569,5669.102040816327
2026-01-08 18:01:04.100,3006.764705882353,-930.9411764705883,-1649.764705882353,4727.705882352941,5669.367346938776
2026-01-08 18:01:04.120,2968.254901960784,-894.9803921568628,-1649.2549019607843,4728.901960784314,5669.632653061224
2026-01-08 18:01:04.140,2929.745098039216,-859.0196078431372,-1648.7450980392157,4730.098039215686,5669.897959183673
2026-01-08 18:01:04.160,2891.235294117647,-823.0588235294117,-1648.235294117647,4731.294117647059,5670.163265306122
2026-01-08 18:01:04.180,2852.7254901960787,-787.0980392156863,-1647.7254901960785,4732.490196078431,5670.428571428572
2026-01-08 18:01:04.200,2814.2156862745096,-751.1372549019609,-1647.2156862745098,4733.686274509804,5670.693877551021
2026-01-08 18:01:04.220,2775.7058823529414,-715.1764705882354,-1646.7058823529412,4734.882352941177,5670.959183673469
2026-01-08 18:01:04.240,2737.1960784313724,-679.2156862745098,-1646.1960784313726,4736.078431372549,5671.224489795918
2026-01-08 18:01:04.260,2698.686274509804,-643.2549019607843,-1645.686274509804,4737.274509803921,5671.489795918367
2026-01-08 18:01:04.280,2660.176470588235,-607.2941176470588,-1645.1764705882354,4738.470588235294,5671.755102040816
2026-01-08 18:01:04.300,2621.666666666667,-571.3333333333333,-1644.6666666666667,4739.666666666667,5672.0204081632655
2026-01-08 18:01:04.320,2583.156862745098,-535.3725490196077,-1644.1568627450981,4740.862745098039,5672.285714285715
2026-01-08 18:01:04.340,2544.6470588235297,-499.41176470588243,-1643.6470588235295,4742.058823529412,5672.551020408163
2026-01-08 18:01:04.360,2506.1372549019607,-463.4509803921569,-1643.137254901961,4743.254901960784,5672.816326530612
2026-01-08 18:01:04.380,2467.6274509803925,-427.4901960784314,-1642.6274509803923,4744.450980392156,5673.081632653061
2026-01-08 18:01:04.400,2429.1176470588234,-391.52941176470586,-1642.1176470588234,4745.64705882353,5673.34693877551
2026-01-08 18:01:04.420,2390.6078431372553,-355.56862745098033,-1641.6078431372548,4746.843137254902,5673.6122448979595
2026-01-08 18:01:04.440,2352.098039215686,-319.6078431372548,-1641.0980392156862,4748.0392156862745,5673.877551020408
2026-01-08 18:01:04.460,2313.588235294118,-283.6470588235295,-1640.5882352941176,4749.235294117647,5674.142857142857
2026-01-08 18:01:04.480,2275.078431372549,-247.68627450980398,-1640.078431372549,4750.431372549019,5674.408163265306
2026-01-08 18:01:04.500,2236.568627450981,-211.72549019607845,-1639.5686274509803,4751.6274509803925,5674.673469387755
2026-01-08 18:01:04.520,2198.0588235294117,-175.76470588235293,-1639.0588235294117,4752.823529411765,5674.938775510204
2026-01-08 18:01:04.540,2159.5490196078435,-139.8039215686274,-1638.549019607843,4754.019607843137,5675.2040816326535
2026-01-08 18:01:04.560,2121.0392156862745,-103.84313725490188,-1638.0392156862745,4755.21568627451,5675.469387755102
2026-01-08 18:01:04.580,2082.529411764706,-67.88235294117658,-1637.5294117647059,4756.411764705882,5675.734693877551
2026-01-08 18:01:04.600,2044.0196078431372,-31.92156862745105,-1637.0196078431372,4757.607843137255,5676.0
2026-01-08 18:01:04.620,2005.5098039215686,4.039215686274474,-1636.5098039215686,4758.803921568628,5675.9807692307695
2026-01-08 18:01:04.640,1967.0,40.0,-1636.0,4760.0,5675.961538461538
2026-01-08 18:01:04.660,2005.12,1.4600000000000009,-1636.02,4760.4,5675.942307692308
2026-01-08 18:01:04.680,2043.24,-37.08,-1636.04,4760.8,5675.923076923077
2026-01-08 18:01:04.700,2081.36,-75.62,-1636.06,4761.2,5675.903846153846
2026-01-08 18:01:04.720,2119.48,-114.16,-1636.08,4761.6,5675.884615384615
2026-01-08 18:01:04.740,2157.6,-152.7,-1636.1,4762.0,5675.865384615385
2026-01-08 18:01:04.760,2195.72,-191.24,-1636.12,4762.4,5675.846153846154
2026-01-08 18:01:04.780,2233.84,-229.77999999999997,-1636.14,4762.8,5675.826923076923
2026-01-08 18:01:04.800,2271.96,-268.32,-1636.16,4763.2,5675.807692307692
2026-01-08 18:01:04.820,2310.08,-306.86,-1636.18,4763.6,5675.788461538462
2026-01-08 18:01:04.840,2348.2,-345.4,-1636.2,4764.0,5675.7692307692305
2026-01-08 18:01:04.860,2386.32,-383.94,-1636.22,4764.4,5675.75
2026-01-08 18:01:04.880,2424.44,-422.48,-1636.24,4764.8,5675.7307692307695
2026-01-08 18:01:04.900,2462.56,-461.02,-1636.26,4765.2,5675.711538461538
2026-01-08 18:01:04.920,2500.68,-499.55999999999995,-1636.28,4765.6,5675.692307692308
2026-01-08 18:01:04.940,2538.8,-538.1,-1636.3,4766.0,5675.673076923077
2026-01-08 18:01:04.960,2576.92,-576.64,-1636.32,4766.4,5675.653846153846
2026-01-08 18:01:04.980,2615.04,-615.18,-1636.34,4766.8,5675.634615384615
2026-01-08 18:01:05.000,2653.16,-653.72,-1636.36,4767.2,5675.615384615385
2026-01-08 18:01:05.020,2691.2799999999997,-692.26,-1636.38,4767.6,5675.596153846154
2026-01-08 18:01:05.040,2729.4,-730.8,-1636.4,4768.0,5675.576923076923
2026-01-08 18:01:05.060,2767.52,-769.34,-1636.42,4768.4,5675.557692307692
2026-01-08 18:01:05.080,2805.64,-807.88,-1636.44,4768.8,5675.538461538462
2026-01-08 18:01:05.100,2843.76,-846.42,-1636.46,4769.2,5675.5192307692305
2026-01-08 18:01:05.120,2881.88,-884.96,-1636.48,4769.6,5675.5
2026-01-08 18:01:05.140,2920.0,-923.5,-1636.5,4770.0,5675.4807692307695
2026-01-08 18:01:05.160,2958.12,-962.04,-1636.52,4770.4,5675.461538461538
2026-01-08 18:01:05.180,2996.24,-1000.5799999999999,-1636.54,4770.8,5675.442307692308
2026-01-08 18:01:05.200,3034.3599999999997,-1039.12,-1636.56,4771.2,5675.423076923077
2026-01-08 18:01:05.220,3072.48,-1077.66,-1636.58,4771.6,5675.403846153846
2026-01-08 18:01:05.240,3110.6,-1116.2,-1636.6,4772.0,5675.384615384615
2026-01-08 18:01:05.260,3148.7200000000003,-1154.74,-1636.62,4772.4,5675.365384615385
2026-01-08 18:01:05.280,3186.84,-1193.28,-1636.64,4772.8,5675.346153846154
2026-01-08 18:01:05.300,3224.96,-1231.82,-1636.66,4773.2,5675.326923076923
2026-01-08 18:01:05.320,3263.08,-1270.36,-1636.68,4773.6,5675.307692307692
2026-01-08 18:01:05.340,3301.2,-1308.8999999999999,-1636.7,4774.0,5675.288461538462
2026-01-08 18:01:05.360,3339.3199999999997,-1347.44,-1636.72,4774.4,5675.2692307692305
2026-01-08 18:01:05.380,3377.4399999999996,-1385.98,-1636.74,4774.8,5675.25
2026-01-08 18:01:05.400,3415.56,-1424.52,-1636.76,4775.2,5675.2307692307695
2026-01-08 18:01:05.420,3453.68,-1463.06,-1636.78,4775.6,5675.211538461538
2026-01-08 18:01:05.440,3491.8,-1501.6,-1636.8,4776.0,5675.192307692308
2026-01-08 18:01:05.460,3529.92,-1540.1399999999999,-1636.82,4776.4,5675.173076923077
2026-01-08 18:01:05.480,3568.04,-1578.68,-1636.84,4776.8,5675.153846153846
2026-01-08 18:01:05.500,3606.16,-1617.22,-1636.86,4777.2,5675.134615384615
2026-01-08 18:01:05.520,3644.2799999999997,-1655.76,-1636.88,4777.6,5675.115384615385
2026-01-08 18:01:05.540,3682.3999999999996,-1694.3,-1636.9,4778.0,5675.096153846154
2026-01-08 18:01:05.560,3720.52,-1732.84,-1636.92,4778.4,5675.076923076923
2026-01-08 18:01:05.580,3758.64,-1771.3799999999999,-1636.94,4778.8,5675.057692307692
2026-01-08 18:01:05.600,3796.7599999999998,-1809.92,-1636.96,4779.2,5675.038461538462
2026-01-08 18:01:05.620,3834.88,-1848.46,-1636.98,4779.6,5675.0192307692305
2026-01-08 18:01:05.640,3873.0,-1887.0,-1637.0,4780.0,5675.0
2026-01-08 18:01:05.660,3873.591836734694,-1841.2244897959183,-1597.2448979591836,4782.061224489796,5674.673469387755
2026-01-08 18:01:05.680,3874.183673469388,-1795.4489795918366,-1557.4897959183672,4784.122448979592,5674.34693877551
2026-01-08 18:01:05.700,3874.7755102040815,-1749.6734693877552,-1517.734693877551,4786.183673469388,5674.0204081632655
2026-01-08 18:01:05.720,3875.3673469387754,-1703.8979591836735,-1477.9795918367347,4788.244897959184,5673.693877551021
2026-01-08 18:01:05.740,3875.9591836734694,-1658.1224489795918,-1438.2244897959183,4790.306122448979,5673.367346938776
2026-01-08 18:01:05.760,3876.5510204081634,-1612.3469387755101,-1398.4693877551022,4792.367346938776,5673.040816326531
2026-01-08 18:01:05.780,3877.1428571428573,-1566.5714285714284,-1358.7142857142858,4794.428571428572,5672.714285714285
2026-01-08 18:01:05.800,3877.734693877551,-1520.795918367347,-1318.9591836734694,4796.489795918367,5672.3877551020405
2026-01-08 18:01:05.820,3878.326530612245,-1475.0204081632653,-1279.204081632653,4798.551020408163,5672.061224489796
2026-01-08 18:01:05.840,3878.918367346939,-1429.2448979591836,-1239.4489795918366,4800.6122448979595,5671.734693877551
2026-01-08 18:01:05.860,3879.5102040816328,-1383.4693877551022,-1199.6938775510205,4802.673469387755,5671.408163265306
2026-01-08 18:01:05.880,3880.1020408163267,-1337.6938775510203,-1159.938775510204,4804.734693877551,5671.081632653061
2026-01-08 18:01:05.900,3880.6938775510203,-1291.9183673469388,-1120.1836734693877,4806.7959183673465,5670.755102040816
2026-01-08 18:01:05.920,3881.285714285714,-1246.142857142857,-1080.4285714285716,4808.857142857143,5670.428571428572
2026-01-08 18:01:05.940,3881.877551020408,-1200.3673469387754,-1040.6734693877552,4810.918367346939,5670.102040816327
2026-01-08 18:01:05.960,3882.469387755102,-1154.591836734694,-1000.9183673469388,4812.9795918367345,5669.775510204082
2026-01-08 18:01:05.980,3883.061224489796,-1108.816326530612,-961.1632653061224,4815.040816326531,5669.448979591837
2026-01-08 18:01:06.000,3883.6530612244896,-1063.0408163265306,-921.4081632653061,4817.102040816327,5669.122448979592
2026-01-08 18:01:06.020,3884.2448979591836,-1017.2653061224489,-881.6530612244899,4819.163265306122,5668.7959183673465
2026-01-08 18:01:06.040,3884.8367346938776,-971.4897959183673,-841.8979591836735,4821.224489795918,5668.469387755102
2026-01-08 18:01:06.060,3885.4285714285716,-925.7142857142857,-802.1428571428571,4823.285714285715,5668.142857142857
2026-01-08 18:01:06.080,3886.0204081632655,-879.9387755102041,-762.3877551020408,4825.34693877551,5667.816326530612
2026-01-08 18:01:06.100,3886.612244897959,-834.1632653061224,-722.6326530612246,4827.408163265306,5667.489795918367
2026-01-08 18:01:06.120,3887.204081632653,-788.3877551020407,-682.8775510204082,4829.469387755102,5667.163265306122
2026-01-08 18:01:06.140,3887.795918367347,-742.612244897959,-643.1224489795918,4831.530612244898,5666.836734693878
2026-01-08 18:01:06.160,3888.387755102041,-696.8367346938776,-603.3673469387754,4833.591836734694,5666.510204081633
2026-01-08 18:01:06.180,3888.9795918367345,-651.0612244897959,-563.6122448979593,4835.65306122449,5666.183673469388
2026-01-08 18:01:06.200,3889.5714285714284,-605.2857142857142,-523.8571428571429,4837.714285714285,5665.857142857143
2026-01-08 18:01:06.220,3890.1632653061224,-559.5102040816325,-484.1020408163265,4839.775510204082,5665.530612244898
2026-01-08 18:01:06.240,3890.7551020408164,-513.7346938775511,-444.34693877551035,4841.836734693878,5665.2040816326535
2026-01-08 18:01:06.260,3891.3469387755104,-467.9591836734694,-404.59183673469397,4843.897959183673,5664.877551020408
2026-01-08 18:01:06.280,3891.938775510204,-422.1836734693877,-364.8367346938776,4845.959183673469,5664.551020408163
2026-01-08 18:01:06.300,3892.530612244898,-376.40816326530603,-325.0816326530612,4848.0204081632655,5664.224489795918
2026-01-08 18:01:06.320,3893.122448979592,-330.63265306122435,-285.3265306122448,4850.081632653061,5663.897959183673
2026-01-08 18:01:06.340,3893.714285714286,-284.8571428571429,-245.57142857142867,4852.142857142857,5663.571428571428
2026-01-08 18:01:06.360,3894.3061224489797,-239.0816326530612,-205.8163265306123,4854.2040816326535,5663.244897959184
2026-01-08 18:01:06.380,3894.8979591836733,-193.30612244897952,-166.0612244897959,4856.265306122449,5662.918367346939
2026-01-08 18:01:06.400,3895.4897959183672,-147.53061224489784,-126.30612244897975,4858.326530612245,5662.591836734694
2026-01-08 18:01:06.420,3896.081632653061,-101.75510204081638,-86.55102040816337,4860.3877551020405,5662.265306122449
2026-01-08 18:01:06.440,3896.673469387755,-55.9795918367347,-46.795918367346985,4862.448979591837,5661.938775510204
2026-01-08 18:01:06.460,3897.265306122449,-10.204081632653015,-7.040816326530603,4864.510204081633,5661.6122448979595
2026-01-08 18:01:06.480,3897.8571428571427,35.57142857142867,32.71428571428578,4866.571428571428,5661.285714285715
2026-01-08 18:01:06.500,3898.4489795918366,81.34693877551035,72.46938775510193,4868.632653061224,5660.959183673469
2026-01-08 18:01:06.520,3899.0408163265306,127.12244897959181,112.22448979591832,4870.693877551021,5660.632653061224
2026-01-08 18:01:06.540,3899.6326530612246,172.89795918367372,151.9795918367347,4872.755102040816,5660.306122448979
2026-01-08 18:01:06.560,3900.2244897959185,218.67346938775518,191.73469387755085,4874.816326530612,5659.9795918367345
2026-01-08 18:01:06.580,3900.816326530612,264.44897959183663,231.48979591836724,4876.877551020408,5659.65306122449
2026-01-08 18:01:06.600,3901.408163265306,310.22448979591854,271.2448979591836,4878.938775510204,5659.326530612245
2026-01-08 18:01:06.620,3902.0,356.0,311.0,4881.0,5659.0
2026-01-08 18:01:06.640,3900.8703703703704,315.3333333333333,311.5,4878.2962962962965,5659.2037037037035
2026-01-08 18:01:06.660,3899.740740740741,274.6666666666667,312.0,4875.592592592592,5659.407407407408
2026-01-08 18:01:06.680,3898.6111111111113,234.0,312.5,4872.888888888889,5659.611111111111
2026-01-08 18:01:06.700,3897.4814814814813,193.33333333333334,313.0,4870.185185185185,5659.814814814815
2026-01-08 18:01:06.720,3896.3518518518517,152.66666666666669,313.5,4867.481481481482,5660.018518518518
2026-01-08 18:01:06.740,3895.222222222222,112.0,314.0,4864.777777777777,5660.222222222223
2026-01-08 18:01:06.760,3894.0925925925926,71.33333333333337,314.5,4862.074074074074,5660.425925925926
2026-01-08 18:01:06.780,3892.962962962963,30.666666666666686,315.0,4859.37037037037,5660.62962962963
2026-01-08 18:01:06.800,3891.8333333333335,-10.0,315.5,4856.666666666667,5660.833333333333
2026-01-08 18:01:06.820,3890.703703703704,-50.66666666666663,316.0,4853.962962962963,5661.037037037037
2026-01-08 18:01:06.840,3889.574074074074,-91.33333333333331,316.5,4851.259259259259,5661.240740740741
2026-01-08 18:01:06.860,3888.4444444444443,-132.0,317.0,4848.555555555556,5661.444444444444
2026-01-08 18:01:06.880,3887.314814814815,-172.66666666666663,317.5,4845.851851851852,5661.648148148148
2026-01-08 18:01:06.900,3886.185185185185,-213.33333333333326,318.0,4843.148148148148,5661.851851851852
2026-01-08 18:01:06.920,3885.0555555555557,-254.0,318.5,4840.444444444444,5662.055555555556
2026-01-08 18:01:06.940,3883.925925925926,-294.66666666666663,319.0,4837.740740740741,5662.259259259259
2026-01-08 18:01:06.960,3882.796296296296,-335.33333333333326,319.5,4835.037037037037,5662.462962962963
2026-01-08 18:01:06.980,3881.6666666666665,-376.0,320.0,4832.333333333333,5662.666666666667
2026-01-08 18:01:07.000,3880.537037037037,-416.66666666666663,320.5,4829.62962962963,5662.87037037037
2026-01-08 18:01:07.020,3879.4074074074074,-457.33333333333326,321.0,4826.925925925926,5663.074074074074
2026-01-08 18:01:07.040,3878.277777777778,-498.0,321.5,4824.222222222223,5663.277777777777
2026-01-08 18:01:07.060,3877.1481481481483,-538.6666666666666,322.0,4821.518518518518,5663.481481481482
2026-01-08 18:01:07.080,3876.0185185185187,-579.3333333333333,322.5,4818.814814814815,5663.685185185185
2026-01-08 18:01:07.100,3874.8888888888887,-620.0,323.0,4816.111111111111,5663.888888888889
2026-01-08 18:01:07.120,3873.759259259259,-660.6666666666666,323.5,4813.407407407408,5664.092592592592
2026-01-08 18:01:07.140,3872.6296296296296,-701.3333333333333,324.0,4810.7037037037035,5664.2962962962965
2026-01-08 18:01:07.160,3871.5,-742.0,324.5,4808.0,5664.5
2026-01-08 18:01:07.180,3870.3703703703704,-782.6666666666665,325.0,4805.2962962962965,5664.7037037037035
2026-01-08 18:01:07.200,3869.240740740741,-823.3333333333333,325.5,4802.592592592592,5664.907407407408
2026-01-08 18:01:07.220,3868.1111111111113,-864.0,326.0,4799.888888888889,5665.111111111111
2026-01-08 18:01:07.240,3866.9814814814813,-904.6666666666665,326.5,4797.185185185185,5665.314814814815
2026-01-08 18:01:07.260,3865.8518518518517,-945.3333333333333,327.0,4794.481481481482,5665.518518518518
2026-01-08 18:01:07.280,3864.722222222222,-986.0,327.5,4791.777777777777,5665.722222222223
2026-01-08 18:01:07.300,3863.5925925925926,-1026.6666666666665,328.0,4789.074074074074,5665.925925925926
2026-01-08 18:01:07.320,3862.462962962963,-1067.3333333333333,328.5,4786.37037037037,5666.12962962963
2026-01-08 18:01:07.340,3861.3333333333335,-1108.0,329.0,4783.666666666667,5666.333333333333
2026-01-08 18:01:07.360,3860.203703703704,-1148.6666666666665,329.5,4780.962962962963,5666.537037037037
2026-01-08 18:01:07.380,3859.074074074074,-1189.3333333333333,330.0,4778.259259259259,5666.740740740741
2026-01-08 18:01:07.400,3857.9444444444443,-1230.0,330.5,4775.555555555556,5666.944444444444
2026-01-08 18:01:07.420,3856.814814814815,-1270.6666666666665,331.0,4772.851851851852,5667.148148148148
2026-01-08 18:01:07.440,3855.685185185185,-1311.3333333333333,331.5,4770.148148148148,5667.351851851852
2026-01-08 18:01:07.460,3854.5555555555557,-1352.0,332.0,4767.444444444444,5667.555555555556
2026-01-08 18:01:07.480,3853.425925925926,-1392.6666666666665,332.5,4764.740740740741,5667.759259259259
2026-01-08 18:01:07.500,3852.296296296296,-1433.3333333333333,333.0,4762.037037037037,5667.962962962963
2026-01-08 18:01:07.520,3851.1666666666665,-1474.0,333.5,4759.333333333333,5668.166666666667
2026-01-08 18:01:07.540,3850.037037037037,-1514.6666666666665,334.0,4756.62962962963,5668.37037037037
2026-01-08 18:01:07.560,3848.9074074074074,-1555.3333333333333,334.5,4753.925925925926,5668.574074074074
2026-01-08 18:01:07.580,3847.777777777778,-1596.0,335.0,4751.222222222223,5668.777777777777
2026-01-08 18:01:07.600,3846.6481481481483,-1636.6666666666665,335.5,4748.518518518518,5668.981481481482
2026-01-08 18:01:07.620,3845.5185185185187,-1677.3333333333333,336.0,4745.814814814815,5669.185185185185
2026-01-08 18:01:07.640,3844.3888888888887,-1718.0,336.5,4743.111111111111,5669.388888888889
2026-01-08 18:01:07.660,3843.259259259259,-1758.6666666666665,337.0,4740.407407407408,5669.592592592592
2026-01-08 18:01:07.680,3842.1296296296296,-1799.333333333333,337.5,4737.7037037037035,5669.7962962962965
2026-01-08 18:01:07.700,3841.0,-1840.0,338.0,4735.0,5670.0
2026-01-08 18:01:07.720,3841.9583333333335,-1840.8958333333333,342.2291666666667,4734.583333333333,5670.104166666667
2026-01-08 18:01:07.740,3842.9166666666665,-1841.7916666666667,346.4583333333333,4734.166666666667,5670.208333333333
2026-01-08 18:01:07.760,3843.875,-1842.6875,350.6875,4733.75,5670.3125
2026-01-08 18:01:07.780,3844.8333333333335,-1843.5833333333333,354.9166666666667,4733.333333333333,5670.416666666667
2026-01-08 18:01:07.800,3845.7916666666665,-1844.4791666666667,359.1458333333333,4732.916666666667,5670.520833333333
2026-01-08 18:01:07.820,3846.75,-1845.375,363.375,4732.5,5670.625
2026-01-08 18:01:07.840,3847.7083333333335,-1846.2708333333333,367.6041666666667,4732.083333333333,5670.729166666667
2026-01-08 18:01:07.860,3848.6666666666665,-1847.1666666666667,371.8333333333333,4731.666666666667,5670.833333333333
2026-01-08 18:01:07.880,3849.625,-1848.0625,376.0625,4731.25,5670.9375
2026-01-08 18:01:07.900,3850.5833333333335,-1848.9583333333333,380.2916666666667,4730.833333333333,5671.041666666667
2026-01-08 18:01:07.920,3851.5416666666665,-1849.8541666666667,384.5208333333333,4730.416666666667,5671.145833333333
2026-01-08 18:01:07.940,3852.5,-1850.75,388.75,4730.0,5671.25
2026-01-08 18:01:07.960,3853.4583333333335,-1851.6458333333333,392.9791666666667,4729.583333333333,5671.354166666667
2026-01-08 18:01:07.980,3854.4166666666665,-1852.5416666666667,397.2083333333333,4729.166666666667,5671.458333333333
2026-01-08 18:01:08.000,3855.375,-1853.4375,401.4375,4728.75,5671.5625
2026-01-08 18:01:08.020,3856.3333333333335,-1854.3333333333333,405.6666666666667,4728.333333333333,5671.666666666667
2026-01-08 18:01:08.040,3857.2916666666665,-1855.2291666666667,409.89583333333337,4727.916666666667,5671.770833333333
2026-01-08 18:01:08.060,3858.25,-1856.125,414.125,4727.5,5671.875
2026-01-08 18:01:08.080,3859.2083333333335,-1857.0208333333333,418.3541666666667,4727.083333333333,5671.979166666667
2026-01-08 18:01:08.100,3860.1666666666665,-1857.9166666666667,422.58333333333337,4726.666666666667,5672.083333333333
2026-01-08 18:01:08.120,3861.125,-1858.8125,426.8125,4726.25,5672.1875
2026-01-08 18:01:08.140,3862.0833333333335,-1859.7083333333333,431.0416666666667,4725.833333333333,5672.291666666667
2026-01-08 18:01:08.160,3863.0416666666665,-1860.6041666666667,435.27083333333337,4725.416666666667,5672.395833333333
2026-01-08 18:01:08.180,3864.0,-1861.5,439.5,4725.0,5672.5
2026-01-08 18:01:08.200,3864.9583333333335,-1862.3958333333333,443.7291666666667,4724.583333333333,5672.604166666667
2026-01-08 18:01:08.220,3865.9166666666665,-1863.2916666666667,447.95833333333337,4724.166666666667,5672.708333333333
2026-01-08 18:01:08.240,3866.875,-1864.1875,452.1875,4723.75,5672.8125
2026-01-08 18:01:08.260,3867.8333333333335,-1865.0833333333333,456.4166666666667,4723.333333333333,5672.916666666667
2026-01-08 18:01:08.280,3868.7916666666665,-1865.9791666666667,460.64583333333337,4722.916666666667,5673.020833333333
2026-01-08 18:01:08.300,3869.75,-1866.875,464.875,4722.5,5673.125
2026-01-08 18:01:08.320,3870.7083333333335,-1867.7708333333333,469.1041666666667,4722.083333333333,5673.229166666667
2026-01-08 18:01:08.340,3871.6666666666665,-1868.6666666666667,473.33333333333337,4721.666666666667,5673.333333333333
2026-01-08 18:01:08.360,3872.625,-1869.5625,477.5625,4721.25,5673.4375
2026-01-08 18:01:08.380,3873.5833333333335,-1870.4583333333333,481.7916666666667,4720.833333333333,5673.541666666667
2026-01-08 18:01:08.400,3874.5416666666665,-1871.3541666666667,486.02083333333337,4720.416666666667,5673.645833333333
2026-01-08 18:01:08.420,3875.5,-1872.25,490.25,4720.0,5673.75
2026-01-08 18:01:08.440,3876.4583333333335,-1873.1458333333333,494.4791666666667,4719.583333333333,5673.854166666667
2026-01-08 18:01:08.460,3877.4166666666665,-1874.0416666666667,498.70833333333337,4719.166666666667,5673.958333333333
2026-01-08 18:01:08.480,3878.375,-1874.9375,502.9375,4718.75,5674.0625
2026-01-08 18:01:08.500,3879.3333333333335,-1875.8333333333333,507.1666666666667,4718.333333333333,5674.166666666667
2026-01-08 18:01:08.520,3880.2916666666665,-1876.7291666666667,511.39583333333337,4717.916666666667,5674.270833333333
2026-01-08 18:01:08.540,3881.25,-1877.625,515.625,4717.5,5674.375
2026-01-08 18:01:08.560,3882.2083333333335,-1878.5208333333333,519.8541666666667,4717.083333333333,5674.479166666667
2026-01-08 18:01:08.580,3883.1666666666665,-1879.4166666666667,524.0833333333334,4716.666666666667,5674.583333333333
2026-01-08 18:01:08.600,3884.125,-1880.3125,528.3125,4716.25,5674.6875
2026-01-08 18:01:08.620,3885.0833333333335,-1881.2083333333333,532.5416666666667,4715.833333333333,5674.791666666667
2026-01-08 18:01:08.640,3886.0416666666665,-1882.1041666666667,536.7708333333334,4715.416666666667,5674.895833333333
2026-01-08 18:01:08.660,3887.0,-1883.0,541.0,4715.0,5675.0
2026-01-08 18:01:08.680,3887.0,-1882.1836734693877,496.6938775510204,4716.918367346939,5674.714285714285
2026-01-08 18:01:08.700,3887.0,-1881.3673469387754,452.38775510204084,4718.836734693878,5674.428571428572
2026-01-08 18:01:08.720,3887.0,-1880.5510204081634,408.0816326530612,4720.755102040816,5674.142857142857
2026-01-08 18:01:08.740,3887.0,-1879.734693877551,363.7755102040816,4722.673469387755,5673.857142857143
2026-01-08 18:01:08.760,3887.0,-1878.9183673469388,319.46938775510205,4724.591836734694,5673.571428571428
2026-01-08 18:01:08.780,3887.0,-1878.1020408163265,275.1632653061224,4726.510204081633,5673.285714285715
2026-01-08 18:01:08.800,3887.0,-1877.2857142857142,230.85714285714283,4728.428571428572,5673.0
2026-01-08 18:01:08.820,3887.0,-1876.469387755102,186.55102040816325,4730.34693877551,5672.714285714285
2026-01-08 18:01:08.840,3887.0,-1875.6530612244899,142.24489795918367,4732.265306122449,5672.428571428572
2026-01-08 18:01:08.860,3887.0,-1874.8367346938776,97.9387755102041,4734.183673469388,5672.142857142857
2026-01-08 18:01:08.880,3887.0,-1874.0204081632653,53.63265306122446,4736.102040816327,5671.857142857143
2026-01-08 18:01:08.900,3887.0,-1873.204081632653,9.326530612244824,4738.0204081632655,5671.571428571428
2026-01-08 18:01:08.920,3887.0,-1872.3877551020407,-34.9795918367347,4739.938775510204,5671.285714285715
2026-01-08 18:01:08.940,3887.0,-1871.5714285714287,-79.28571428571433,4741.857142857143,5671.0
2026-01-08 18:01:08.960,3887.0,-1870.7551020408164,-123.59183673469386,4743.775510204082,5670.714285714285
2026-01-08 18:01:08.980,3887.0,-1869.938775510204,-167.8979591836735,4745.693877551021,5670.428571428572
2026-01-08 18:01:09.000,3887.0,-1869.1224489795918,-212.20408163265313,4747.6122448979595,5670.142857142857
2026-01-08 18:01:09.020,3887.0,-1868.3061224489795,-256.51020408163265,4749.530612244898,5669.857142857143
2026-01-08 18:01:09.040,3887.0,-1867.4897959183672,-300.8163265306123,4751.448979591837,5669.571428571428
2026-01-08 18:01:09.060,3887.0,-1866.6734693877552,-345.1224489795918,4753.367346938776,5669.285714285715
2026-01-08 18:01:09.080,3887.0,-1865.857142857143,-389.42857142857144,4755.285714285715,5669.0
2026-01-08 18:01:09.100,3887.0,-1865.0408163265306,-433.7346938775511,4757.2040816326535,5668.714285714285
2026-01-08 18:01:09.120,3887.0,-1864.2244897959183,-478.0408163265306,4759.122448979592,5668.428571428572
2026-01-08 18:01:09.140,3887.0,-1863.408163265306,-522.3469387755104,4761.040816326531,5668.142857142857
2026-01-08 18:01:09.160,3887.0,-1862.591836734694,-566.6530612244899,4762.959183673469,5667.857142857143
2026-01-08 18:01:09.180,3887.0,-1861.7755102040817,-610.9591836734694,4764.877551020408,5667.571428571428
2026-01-08 18:01:09.200,3887.0,-1860.9591836734694,-655.2653061224489,4766.7959183673465,5667.285714285715
2026-01-08 18:01:09.220,3887.0,-1860.142857142857,-699.5714285714287,4768.714285714285,5667.0
2026-01-08 18:01:09.240,3887.0,-1859.3265306122448,-743.8775510204082,4770.632653061224,5666.714285714285
2026-01-08 18:01:09.260,3887.0,-1858.5102040816328,-788.1836734693877,4772.551020408163,5666.428571428572
2026-01-08 18:01:09.280,3887.0,-1857.6938775510205,-832.4897959183675,4774.469387755102,5666.142857142857
2026-01-08 18:01:09.300,3887.0,-1856.8775510204082,-876.795918367347,4776.3877551020405,5665.857142857143
2026-01-08 18:01:09.320,3887.0,-1856.061224489796,-921.1020408163265,4778.306122448979,5665.571428571428
2026-01-08 18:01:09.340,3887.0,-1855.2448979591836,-965.4081632653063,4780.224489795918,5665.285714285715
2026-01-08 18:01:09.360,3887.0,-1854.4285714285713,-1009.7142857142858,4782.142857142857,5665.0
2026-01-08 18:01:09.380,3887.0,-1853.6122448979593,-1054.0204081632653,4784.061224489796,5664.714285714285
2026-01-08 18:01:09.400,3887.0,-1852.795918367347,-1098.326530612245,4785.9795918367345,5664.428571428572
2026-01-08 18:01:09.420,3887.0,-1851.9795918367347,-1142.6326530612246,4787.897959183673,5664.142857142857
2026-01-08 18:01:09.440,3887.0,-1851.1632653061224,-1186.938775510204,4789.816326530612,5663.857142857143
2026-01-08 18:01:09.460,3887.0,-1850.3469387755101,-1231.2448979591836,4791.734693877551,5663.571428571428
2026-01-08 18:01:09.480,3887.0,-1849.530612244898,-1275.5510204081634,4793.65306122449,5663.285714285715
2026-01-08 18:01:09.500,3887.0,-1848.7142857142858,-1319.857142857143,4795.571428571428,5663.0
2026-01-08 18:01:09.520,3887.0,-1847.8979591836735,-1364.1632653061224,4797.489795918367,5662.714285714285
2026-01-08 18:01:09.540,3887.0,-1847.0816326530612,-1408.4693877551022,4799.408163265306,5662.428571428572
2026-01-08 18:01:09.560,3887.0,-1846.265306122449,-1452.7755102040817,4801.326530612245,5662.142857142857
2026-01-08 18:01:09.580,3887.0,-1845.4489795918366,-1497.0816326530612,4803.244897959184,5661.857142857143
2026-01-08 18:01:09.600,3887.0,-1844.6326530612246,-1541.387755102041,4805.163265306122,5661.571428571428
2026-01-08 18:01:09.620,3887.0,-1843.8163265306123,-1585.6938775510207,4807.081632653061,5661.285714285715
2026-01-08 18:01:09.640,3887.0,-1843.0,-1630.0,4809.0,5661.0
2026-01-08 18:01:09.660,3887.0188679245284,-1842.433962264151,-1593.3396226415093,4809.509433962264,5661.037735849057
2026-01-08 18:01:09.680,3887.0377358490564,-1841.867924528302,-1556.6792452830189,4810.018867924528,5661.075471698113
2026-01-08 18:01:09.700,3887.056603773585,-1841.301886792453,-1520.0188679245284,4810.528301886792,5661.11320754717
2026-01-08 18:01:09.720,3887.0754716981132,-1840.7358490566037,-1483.3584905660377,4811.037735849057,5661.1509433962265
2026-01-08 18:01:09.740,3887.0943396226417,-1840.1698113207547,-1446.698113207547,4811.547169811321,5661.188679245283
2026-01-08 18:01:09.760,3887.1132075471696,-1839.6037735849056,-1410.0377358490566,4812.056603773585,5661.226415094339
2026-01-08 18:01:09.780,3887.132075471698,-1839.0377358490566,-1373.3773584905662,4812.566037735849,5661.264150943396
2026-01-08 18:01:09.800,3887.1509433962265,-1838.4716981132076,-1336.7169811320755,4813.075471698113,5661.301886792453
2026-01-08 18:01:09.820,3887.169811320755,-1837.9056603773586,-1300.0566037735848,4813.584905660377,5661.33962264151
2026-01-08 18:01:09.840,3887.188679245283,-1837.3396226415093,-1263.3962264150944,4814.094339622641,5661.377358490566
2026-01-08 18:01:09.860,3887.2075471698113,-1836.7735849056603,-1226.735849056604,4814.603773584906,5661.415094339623
2026-01-08 18:01:09.880,3887.2264150943397,-1836.2075471698113,-1190.0754716981132,4815.11320754717,5661.452830188679
2026-01-08 18:01:09.900,3887.245283018868,-1835.6415094339623,-1153.4150943396226,4815.622641509434,5661.490566037736
2026-01-08 18:01:09.920,3887.264150943396,-1835.0754716981132,-1116.754716981132,4816.132075471698,5661.528301886792
2026-01-08 18:01:09.940,3887.2830188679245,-1834.5094339622642,-1080.0943396226417,4816.641509433963,5661.566037735849
2026-01-08 18:01:09.960,3887.301886792453,-1833.9433962264152,-1043.433962264151,4817.1509433962265,5661.603773584906
2026-01-08 18:01:09.980,3887.3207547169814,-1833.377358490566,-1006.7735849056604,4817.66037735849,5661.641509433963
2026-01-08 18:01:10.000,3887.3396226415093,-1832.811320754717,-970.1132075471698,4818.169811320755,5661.679245283019
2026-01-08 18:01:10.020,3887.3584905660377,-1832.245283018868,-933.4528301886793,4818.679245283019,5661.7169811320755
2026-01-08 18:01:10.040,3887.377358490566,-1831.6792452830189,-896.7924528301887,4819.188679245283,5661.754716981132
2026-01-08 18:01:10.060,3887.396226415094,-1831.1132075471698,-860.1320754716982,4819.698113207547,5661.792452830188
2026-01-08 18:01:10.080,3887.4150943396226,-1830.5471698113208,-823.4716981132076,4820.207547169812,5661.830188679245
2026-01-08 18:01:10.100,3887.433962264151,-1829.9811320754718,-786.811320754717,4820.7169811320755,5661.867924528302
2026-01-08 18:01:10.120,3887.4528301886794,-1829.4150943396226,-750.1509433962265,4821.226415094339,5661.905660377359
2026-01-08 18:01:10.140,3887.4716981132074,-1828.8490566037735,-713.4905660377359,4821.735849056604,5661.943396226415
2026-01-08 18:01:10.160,3887.490566037736,-1828.2830188679245,-676.8301886792453,4822.245283018868,5661.981132075472
2026-01-08 18:01:10.180,3887.509433962264,-1827.7169811320755,-640.1698113207548,4822.754716981132,5662.018867924528
2026-01-08 18:01:10.200,3887.5283018867926,-1827.1509433962265,-603.5094339622642,4823.264150943396,5662.056603773585
2026-01-08 18:01:10.220,3887.5471698113206,-1826.5849056603774,-566.8490566037735,4823.773584905661,5662.094339622641
2026-01-08 18:01:10.240,3887.566037735849,-1826.0188679245282,-530.1886792452831,4824.2830188679245,5662.132075471698
2026-01-08 18:01:10.260,3887.5849056603774,-1825.4528301886792,-493.52830188679263,4824.792452830188,5662.169811320755
2026-01-08 18:01:10.280,3887.603773584906,-1824.8867924528302,-456.86792452830196,4825.301886792453,5662.207547169812
2026-01-08 18:01:10.300,3887.622641509434,-1824.3207547169811,-420.2075471698113,4825.811320754717,5662.245283018868
2026-01-08 18:01:10.320,3887.6415094339623,-1823.754716981132,-383.5471698113208,4826.320754716981,5662.2830188679245
2026-01-08 18:01:10.340,3887.6603773584907,-1823.188679245283,-346.8867924528304,4826.830188679245,5662.320754716981
2026-01-08 18:01:10.360,3887.6792452830186,-1822.622641509434,-310.2264150943397,4827.33962264151,5662.358490566037
2026-01-08 18:01:10.380,3887.698113207547,-1822.0566037735848,-273.566037735849,4827.8490566037735,5662.396226415094
2026-01-08 18:01:10.400,3887.7169811320755,-1821.4905660377358,-236.90566037735857,4828.358490566037,5662.433962264151
2026-01-08 18:01:10.420,3887.735849056604,-1820.9245283018868,-200.24528301886812,4828.867924528302,5662.471698113208
2026-01-08 18:01:10.440,3887.754716981132,-1820.3584905660377,-163.58490566037744,4829.377358490566,5662.509433962264
2026-01-08 18:01:10.460,3887.7735849056603,-1819.7924528301887,-126.92452830188677,4829.88679245283,5662.547169811321
2026-01-08 18:01:10.480,3887.7924528301887,-1819.2264150943397,-90.26415094339632,4830.396226415094,5662.584905660377
2026-01-08 18:01:10.500,3887.811320754717,-1818.6603773584907,-53.603773584905866,4830.905660377359,5662.622641509434
2026-01-08 18:01:10.520,3887.830188679245,-1818.0943396226414,-16.94339622641519,4831.415094339623,5662.66037735849
2026-01-08 18:01:10.540,3887.8490566037735,-1817.5283018867924,19.71698113207549,4831.924528301887,5662.698113207547
2026-01-08 18:01:10.560,3887.867924528302,-1816.9622641509434,56.37735849056594,4832.433962264151,5662.735849056604
2026-01-08 18:01:10.580,3887.8867924528304,-1816.3962264150944,93.03773584905639,4832.943396226415,5662.773584905661
2026-01-08 18:01:10.600,3887.9056603773583,-1815.8301886792453,129.69811320754707,4833.452830188679,5662.811320754717
2026-01-08 18:01:10.620,3887.9245283018868,-1815.2641509433963,166.35849056603774,4833.962264150943,5662.8490566037735
2026-01-08 18:01:10.640,3887.943396226415,-1814.698113207547,203.0188679245282,4834.471698113208,5662.88679245283
2026-01-08 18:01:10.660,3887.9622641509436,-1814.132075471698,239.67924528301864,4834.981132075472,5662.924528301887
2026-01-08 18:01:10.680,3887.9811320754716,-1813.566037735849,276.3396226415093,4835.490566037736,5662.962264150943
2026-01-08 18:01:10.700,3888.0,-1813.0,313.0,4836.0,5663.0
2026-01-08 18:01:10.720,3849.1020408163267,-1734.265306122449,269.81632653061223,4834.041666666667,5662.916666666667
2026-01-08 18:01:10.740,3810.204081632653,-1655.5306122448978,226.6326530612245,4832.083333333333,5662.833333333333
2026-01-08 18:01:10.760,3771.3061224489797,-1576.795918367347,183.44897959183675,4830.125,5662.75
2026-01-08 18:01:10.780,3732.408163265306,-1498.061224489796,140.26530612244898,4828.166666666667,5662.666666666667
2026-01-08 18:01:10.800,3693.5102040816328,-1419.3265306122448,97.0816326530612,4826.208333333333,5662.583333333333
2026-01-08 18:01:10.820,3654.612244897959,-1340.591836734694,53.89795918367349,4824.25,5662.5
2026-01-08 18:01:10.840,3615.714285714286,-1261.857142857143,10.714285714285722,4822.291666666667,5662.416666666667
2026-01-08 18:01:10.860,3576.816326530612,-1183.1224489795918,-32.46938775510205,4820.333333333333,5662.333333333333
2026-01-08 18:01:10.880,3537.918367346939,-1104.3877551020407,-75.65306122448982,4818.375,5662.25
2026-01-08 18:01:10.900,3499.0204081632655,-1025.6530612244896,-118.83673469387759,4816.416666666667,5662.166666666667
2026-01-08 18:01:10.920,3460.122448979592,-946.9183673469388,-162.0204081632653,4814.458333333333,5662.083333333333
2026-01-08 18:01:10.940,3421.224489795918,-868.1836734693877,-205.20408163265301,4812.5,5662.0
2026-01-08 18:01:10.960,3382.326530612245,-789.4489795918366,-248.38775510204084,4810.541666666667,5661.916666666667
2026-01-08 18:01:10.980,3343.4285714285716,-710.7142857142858,-291.57142857142856,4808.583333333333,5661.833333333333
2026-01-08 18:01:11.000,3304.530612244898,-631.9795918367347,-334.7551020408164,4806.625,5661.75
2026-01-08 18:01:11.020,3265.6326530612246,-553.2448979591836,-377.9387755102041,4804.666666666667,5661.666666666667
2026-01-08 18:01:11.040,3226.734693877551,-474.51020408163254,-421.1224489795918,4802.708333333333,5661.583333333333
2026-01-08 18:01:11.060,3187.8367346938776,-395.77551020408146,-464.30612244897964,4800.75,5661.5
2026-01-08 18:01:11.080,3148.9387755102043,-317.0408163265306,-507.48979591836735,4798.791666666667,5661.416666666667
2026-01-08 18:01:11.100,3110.0408163265306,-238.30612244897952,-550.6734693877552,4796.833333333333,5661.333333333333
2026-01-08 18:01:11.120,3071.142857142857,-159.57142857142844,-593.8571428571429,4794.875,5661.25
2026-01-08 18:01:11.140,3032.2448979591836,-80.83673469387759,-637.0408163265306,4792.916666666667,5661.166666666667
2026-01-08 18:01:11.160,2993.3469387755104,-2.1020408163265074,-680.2244897959184,4790.958333333333,5661.083333333333
2026-01-08 18:01:11.180,2954.4489795918366,76.63265306122457,-723.408163265306,4789.0,5661.0
2026-01-08 18:01:11.200,2915.5510204081634,155.36734693877565,-766.591836734694,4787.041666666667,5660.916666666667
2026-01-08 18:01:11.220,2876.6530612244896,234.10204081632673,-809.7755102040817,4785.083333333333,5660.833333333333
2026-01-08 18:01:11.240,2837.7551020408164,312.8367346938776,-852.9591836734694,4783.125,5660.75
2026-01-08 18:01:11.260,2798.857142857143,391.57142857142844,-896.1428571428571,4781.166666666667,5660.666666666667
2026-01-08 18:01:11.280,2759.9591836734694,470.30612244897975,-939.3265306122448,4779.208333333333,5660.583333333333
2026-01-08 18:01:11.300,2721.0612244897957,549.0408163265306,-982.5102040816328,4777.25,5660.5
2026-01-08 18:01:11.320,2682.1632653061224,627.7755102040819,-1025.6938775510205,4775.291666666667,5660.416666666667
2026-01-08 18:01:11.340,2643.265306122449,706.5102040816328,-1068.8775510204082,4773.333333333333,5660.333333333333
2026-01-08 18:01:11.360,2604.3673469387754,785.2448979591836,-1112.061224489796,4771.375,5660.25
2026-01-08 18:01:11.380,2565.4693877551017,863.9795918367349,-1155.2448979591836,4769.416666666667,5660.166666666667
2026-01-08 18:01:11.400,2526.5714285714284,942.7142857142858,-1198.4285714285716,4767.458333333333,5660.083333333333
2026-01-08 18:01:11.420,2487.673469387755,1021.4489795918371,-1241.6122448979593,4765.5,5660.0
2026-01-08 18:01:11.440,2448.7755102040815,1100.183673469388,-1284.795918367347,4763.541666666667,5659.916666666667
2026-01-08 18:01:11.460,2409.877551020408,1178.9183673469388,-1327.9795918367347,4761.583333333333,5659.833333333333
2026-01-08 18:01:11.480,2370.9795918367345,1257.65306122449,-1371.1632653061224,4759.625,5659.75
2026-01-08 18:01:11.500,2332.081632653061,1336.387755102041,-1414.3469387755104,4757.666666666667,5659.666666666667
2026-01-08 18:01:11.520,2293.183673469388,1415.1224489795918,-1457.530612244898,4755.708333333333,5659.583333333333
2026-01-08 18:01:11.540,2254.285714285714,1493.8571428571431,-1500.7142857142858,4753.75,5659.5
2026-01-08 18:01:11.560,2215.3877551020405,1572.591836734694,-1543.8979591836735,4751.791666666667,5659.416666666667
2026-01-08 18:01:11.580,2176.4897959183672,1651.3265306122448,-1587.0816326530612,4749.833333333333,5659.333333333333
2026-01-08 18:01:11.600,2137.591836734694,1730.0612244897961,-1630.265306122449,4747.875,5659.25
2026-01-08 18:01:11.620,2098.6938775510203,1808.795918367347,-1673.4489795918369,4745.916666666667,5659.166666666667
2026-01-08 18:01:11.640,2059.7959183673465,1887.5306122448983,-1716.6326530612246,4743.958333333333,5659.083333333333
2026-01-08 18:01:11.660,2020.8979591836733,1966.2653061224491,-1759.816326530612,4742.0,5659.0
2026-01-08 18:01:11.680,1982.0,2045.0,-1803.0,4743.604166666667,5658.8125
2026-01-08 18:01:11.700,2022.1702127659573,1963.212765957447,-1799.8936170212767,4745.208333333333,5658.625
2026-01-08 18:01:11.720,2062.3404255319147,1881.4255319148936,-1796.787234042553,4746.8125,5658.4375
2026-01-08 18:01:11.740,2102.5106382978724,1799.6382978723404,-1793.6808510638298,4748.416666666667,5658.25
2026-01-08 18:01:11.760,2142.68085106383,1717.851063829787,-1790.5744680851064,4750.020833333333,5658.0625
2026-01-08 18:01:11.780,2182.851063829787,1636.063829787234,-1787.468085106383,4751.625,5657.875
2026-01-08 18:01:11.800,2223.021276595745,1554.276595744681,-1784.3617021276596,4753.229166666667,5657.6875
2026-01-08 18:01:11.820,2263.191489361702,1472.4893617021276,-1781.2553191489362,4754.833333333333,5657.5
2026-01-08 18:01:11.840,2303.3617021276596,1390.7021276595744,-1778.1489361702127,4756.4375,5657.3125
2026-01-08 18:01:11.860,2343.531914893617,1308.9148936170213,-1775.0425531914893,4758.041666666667,5657.125
2026-01-08 18:01:11.880,2383.702127659574,1227.127659574468,-1771.936170212766,4759.645833333333,5656.9375
2026-01-08 18:01:11.900,2423.872340425532,1145.340425531915,-1768.8297872340427,4761.25,5656.75
2026-01-08 18:01:11.920,2464.0425531914893,1063.5531914893618,-1765.723404255319,4762.854166666667,5656.5625
2026-01-08 18:01:11.940,2504.2127659574467,981.7659574468084,-1762.6170212765958,4764.458333333333,5656.375
2026-01-08 18:01:11.960,2544.3829787234044,899.9787234042553,-1759.5106382978724,4766.0625,5656.1875
2026-01-08 18:01:11.980,2584.553191489362,818.191489361702,-1756.404255319149,4767.666666666667,5656.0
2026-01-08 18:01:12.000,2624.723404255319,736.4042553191489,-1753.2978723404256,4769.270833333333,5655.8125
2026-01-08 18:01:12.020,2664.8936170212764,654.6170212765958,-1750.1914893617022,4770.875,5655.625
2026-01-08 18:01:12.040,2705.0638297872338,572.8297872340424,-1747.0851063829787,4772.479166666667,5655.4375
2026-01-08 18:01:12.060,2745.2340425531916,491.04255319148933,-1743.9787234042553,4774.083333333333,5655.25
2026-01-08 18:01:12.080,2785.404255319149,409.255319148936,-1740.872340425532,4775.6875,5655.0625
2026-01-08 18:01:12.100,2825.574468085106,327.4680851063829,-1737.7659574468084,4777.291666666667,5654.875
2026-01-08 18:01:12.120,2865.744680851064,245.68085106382978,-1734.659574468085,4778.895833333333,5654.6875
2026-01-08 18:01:12.140,2905.9148936170213,163.89361702127644,-1731.5531914893618,4780.5,5654.5
2026-01-08 18:01:12.160,2946.0851063829787,82.10638297872333,-1728.4468085106382,4782.104166666667,5654.3125
2026-01-08 18:01:12.180,2986.255319148936,0.31914893617022244,-1725.340425531915,4783.708333333333,5654.125
2026-01-08 18:01:12.200,3026.4255319148933,-81.46808510638311,-1722.2340425531916,4785.3125,5653.9375
2026-01-08 18:01:12.220,3066.595744680851,-163.25531914893645,-1719.127659574468,4786.916666666667,5653.75
2026-01-08 18:01:12.240,3106.7659574468084,-245.04255319148933,-1716.0212765957447,4788.520833333333,5653.5625
2026-01-08 18:01:12.260,3146.936170212766,-326.82978723404267,-1712.9148936170213,4790.125,5653.375
2026-01-08 18:01:12.280,3187.1063829787236,-408.617021276596,-1709.8085106382978,4791.729166666667,5653.1875
2026-01-08 18:01:12.300,3227.276595744681,-490.4042553191489,-1706.7021276595744,4793.333333333333,5653.0
2026-01-08 18:01:12.320,3267.446808510638,-572.1914893617022,-1703.595744680851,4794.9375,5652.8125
2026-01-08 18:01:12.340,3307.6170212765956,-653.9787234042556,-1700.4893617021276,4796.541666666667,5652.625
2026-01-08 18:01:12.360,3347.787234042553,-735.7659574468084,-1697.3829787234042,4798.145833333333,5652.4375
2026-01-08 18:01:12.380,3387.9574468085107,-817.5531914893618,-1694.276595744681,4799.75,5652.25
2026-01-08 18:01:12.400,3428.127659574468,-899.3404255319151,-1691.1702127659576,4801.354166666667,5652.0625
2026-01-08 18:01:12.420,3468.2978723404253,-981.127659574468,-1688.063829787234,4802.958333333333,5651.875
2026-01-08 18:01:12.440,3508.468085106383,-1062.9148936170213,-1684.9574468085107,4804.5625,5651.6875
2026-01-08 18:01:12.460,3548.6382978723404,-1144.7021276595747,-1681.8510638297873,4806.166666666667,5651.5
2026-01-08 18:01:12.480,3588.808510638298,-1226.489361702128,-1678.7446808510638,4807.770833333333,5651.3125
2026-01-08 18:01:12.500,3628.978723404255,-1308.276595744681,-1675.6382978723404,4809.375,5651.125
2026-01-08 18:01:12.520,3669.1489361702124,-1390.0638297872342,-1672.531914893617,4810.979166666667,5650.9375
2026-01-08 18:01:12.540,3709.31914893617,-1471.8510638297876,-1669.4255319148936,4812.583333333333,5650.75
2026-01-08 18:01:12.560,3749.4893617021276,-1553.6382978723404,-1666.3191489361702,4814.1875,5650.5625
2026-01-08 18:01:12.580,3789.659574468085,-1635.4255319148938,-1663.212765957447,4815.791666666667,5650.375
2026-01-08 18:01:12.600,3829.8297872340427,-1717.2127659574471,-1660.1063829787233,4817.395833333333,5650.1875
2026-01-08 18:01:12.620,3870.0,-1799.0,-1657.0,4819.0,5650.0
2026-01-08 18:01:12.640,3871.2363636363634,-1800.1272727272728,-1656.3272727272727,4819.254545454545,5650.527272727273
2026-01-08 18:01:12.660,3872.4727272727273,-1801.2545454545455,-1655.6545454545455,4819.509090909091,5651.054545454545
2026-01-08 18:01:12.680,3873.7090909090907,-1802.3818181818183,-1654.9818181818182,4819.763636363637,5651.581818181819
2026-01-08 18:01:12.700,3874.9454545454546,-1803.509090909091,-1654.3090909090909,4820.018181818182,5652.109090909091
2026-01-08 18:01:12.720,3876.181818181818,-1804.6363636363637,-1653.6363636363637,4820.272727272727,5652.636363636364
2026-01-08 18:01:12.740,3877.418181818182,-1805.7636363636364,-1652.9636363636364,4820.527272727273,5653.163636363636
2026-01-08 18:01:12.760,3878.6545454545453,-1806.8909090909092,-1652.290909090909,4820.781818181818,5653.690909090909
2026-01-08 18:01:12.780,3879.890909090909,-1808.0181818181818,-1651.6181818181817,4821.036363636364,5654.218181818182
2026-01-08 18:01:12.800,3881.1272727272726,-1809.1454545454546,-1650.9454545454546,4821.290909090909,5654.745454545455
2026-01-08 18:01:12.820,3882.3636363636365,-1810.2727272727273,-1650.2727272727273,4821.545454545455,5655.272727272727
2026-01-08 18:01:12.840,3883.6,-1811.4,-1649.6,4821.8,5655.8
2026-01-08 18:01:12.860,3884.836363636364,-1812.5272727272727,-1648.9272727272728,4822.054545454545,5656.327272727272
2026-01-08 18:01:12.880,3886.072727272727,-1813.6545454545455,-1648.2545454545455,4822.309090909091,5656.854545454546
2026-01-08 18:01:12.900,3887.309090909091,-1814.7818181818182,-1647.581818181818,4822.563636363637,5657.381818181818
2026-01-08 18:01:12.920,3888.5454545454545,-1815.909090909091,-1646.909090909091,4822.818181818182,5657.909090909091
2026-01-08 18:01:12.940,3889.7818181818184,-1817.0363636363636,-1646.2363636363636,4823.072727272727,5658.436363636363
2026-01-08 18:01:12.960,3891.018181818182,-1818.1636363636364,-1645.5636363636363,4823.327272727272,5658.963636363636
2026-01-08 18:01:12.980,3892.2545454545457,-1819.290909090909,-1644.8909090909092,4823.581818181819,5659.490909090909
2026-01-08 18:01:13.000,3893.490909090909,-1820.418181818182,-1644.2181818181818,4823.836363636364,5660.018181818182
2026-01-08 18:01:13.020,3894.7272727272725,-1821.5454545454545,-1643.5454545454545,4824.090909090909,5660.545454545455
2026-01-08 18:01:13.040,3895.9636363636364,-1822.6727272727273,-1642.8727272727272,4824.345454545454,5661.072727272727
2026-01-08 18:01:13.060,3897.2,-1823.8,-1642.2,4824.6,5661.6
2026-01-08 18:01:13.080,3898.4363636363637,-1824.9272727272728,-1641.5272727272727,4824.854545454546,5662.127272727273
2026-01-08 18:01:13.100,3899.672727272727,-1826.0545454545454,-1640.8545454545454,4825.109090909091,5662.654545454546
2026-01-08 18:01:13.120,3900.909090909091,-1827.1818181818182,-1640.1818181818182,4825.363636363636,5663.181818181818
2026-01-08 18:01:13.140,3902.1454545454544,-1828.3090909090909,-1639.509090909091,4825.618181818182,5663.709090909091
2026-01-08 18:01:13.160,3903.3818181818183,-1829.4363636363637,-1638.8363636363636,4825.872727272727,5664.236363636363
2026-01-08 18:01:13.180,3904.6181818181817,-1830.5636363636363,-1638.1636363636364,4826.127272727273,5664.763636363637
2026-01-08 18:01:13.200,3905.8545454545456,-1831.6909090909091,-1637.490909090909,4826.381818181818,5665.290909090909
2026-01-08 18:01:13.220,3907.090909090909,-1832.8181818181818,-1636.8181818181818,4826.636363636364,5665.818181818182
2026-01-08 18:01:13.240,3908.327272727273,-1833.9454545454546,-1636.1454545454546,4826.890909090909,5666.345454545454
2026-01-08 18:01:13.260,3909.5636363636363,-1835.0727272727272,-1635.4727272727273,4827.145454545454,5666.872727272727
2026-01-08 18:01:13.280,3910.8,-1836.2,-1634.8,4827.4,5667.4
2026-01-08 18:01:13.300,3912.0363636363636,-1837.3272727272727,-1634.1272727272728,4827.654545454546,5667.927272727273
2026-01-08 18:01:13.320,3913.2727272727275,-1838.4545454545455,-1633.4545454545455,4827.909090909091,5668.454545454545
2026-01-08 18:01:13.340,3914.509090909091,-1839.581818181818,-1632.7818181818182,4828.163636363636,5668.981818181818
2026-01-08 18:01:13.360,3915.7454545454543,-1840.709090909091,-1632.1090909090908,4828.418181818181,5669.509090909091
2026-01-08 18:01:13.380,3916.981818181818,-1841.8363636363636,-1631.4363636363637,4828.672727272728,5670.036363636364
2026-01-08 18:01:13.400,3918.2181818181816,-1842.9636363636364,-1630.7636363636364,4828.927272727273,5670.563636363637
2026-01-08 18:01:13.420,3919.4545454545455,-1844.090909090909,-1630.090909090909,4829.181818181818,5671.090909090909
2026-01-08 18:01:13.440,3920.690909090909,-1845.2181818181818,-1629.418181818182,4829.436363636363,5671.618181818182
2026-01-08 18:01:13.460,3921.927272727273,-1846.3454545454545,-1628.7454545454545,4829.690909090909,5672.145454545454
2026-01-08 18:01:13.480,3923.163636363636,-1847.4727272727273,-1628.0727272727272,4829.945454545455,5672.672727272728
2026-01-08 18:01:13.500,3924.4,-1848.6,-1627.4,4830.2,5673.2
2026-01-08 18:01:13.520,3925.6363636363635,-1849.7272727272727,-1626.7272727272727,4830.454545454545,5673.727272727273
2026-01-08 18:01:13.540,3926.8727272727274,-1850.8545454545454,-1626.0545454545454,4830.709090909091,5674.254545454545
2026-01-08 18:01:13.560,3928.109090909091,-1851.9818181818182,-1625.3818181818183,4830.963636363636,5674.781818181818
2026-01-08 18:01:13.580,3929.3454545454547,-1853.1090909090908,-1624.709090909091,4831.218181818182,5675.309090909091
2026-01-08 18:01:13.600,3930.581818181818,-1854.2363636363636,-1624.0363636363636,4831.472727272727,5675.836363636364
2026-01-08 18:01:13.620,3931.818181818182,-1855.3636363636363,-1623.3636363636363,4831.727272727273,5676.363636363636
2026-01-08 18:01:13.640,3933.0545454545454,-1856.490909090909,-1622.6909090909091,4831.981818181818,5676.890909090909
2026-01-08 18:01:13.660,3934.2909090909093,-1857.6181818181817,-1622.0181818181818,4832.236363636363,5677.418181818181
2026-01-08 18:01:13.680,3935.5272727272727,-1858.7454545454545,-1621.3454545454545,4832.490909090909,5677.945454545455
2026-01-08 18:01:13.700,3936.7636363636366,-1859.8727272727272,-1620.6727272727273,4832.745454545455,5678.472727272727
2026-01-08 18:01:13.720,3938.0,-1861.0,-1620.0,4833.0,5679.0
2026-01-08 18:01:13.740,3938.148936170213,-1861.872340425532,-1619.212765957447,4833.659574468085,5678.851063829788
2026-01-08 18:01:13.760,3938.2978723404253,-1862.7446808510638,-1618.4255319148936,4834.31914893617,5678.702127659574
2026-01-08 18:01:13.780,3938.446808510638,-1863.6170212765958,-1617.6382978723404,4834.978723404255,5678.553191489362
2026-01-08 18:01:13.800,3938.595744680851,-1864.4893617021276,-1616.8510638297873,4835.63829787234,5678.404255319149
2026-01-08 18:01:13.820,3938.744680851064,-1865.3617021276596,-1616.063829787234,4836.297872340426,5678.255319148936
2026-01-08 18:01:13.840,3938.8936170212764,-1866.2340425531916,-1615.276595744681,4836.95744680851,5678.106382978724
2026-01-08 18:01:13.860,3939.0425531914893,-1867.1063829787233,-1614.4893617021276,4837.617021276596,5677.95744680851
2026-01-08 18:01:13.880,3939.191489361702,-1867.9787234042553,-1613.7021276595744,4838.276595744681,5677.808510638298
2026-01-08 18:01:13.900,3939.340425531915,-1868.8510638297873,-1612.9148936170213,4838.936170212766,5677.659574468085
2026-01-08 18:01:13.920,3939.4893617021276,-1869.723404255319,-1612.127659574468,4839.595744680851,5677.510638297872
2026-01-08 18:01:13.940,3939.6382978723404,-1870.595744680851,-1611.340425531915,4840.255319148936,5677.36170212766
2026-01-08 18:01:13.960,3939.7872340425533,-1871.468085106383,-1610.5531914893618,4840.914893617021,5677.212765957447
2026-01-08 18:01:13.980,3939.936170212766,-1872.340425531915,-1609.7659574468084,4841.574468085107,5677.063829787234
2026-01-08 18:01:14.000,3940.0851063829787,-1873.212765957447,-1608.9787234042553,4842.234042553191,5676.914893617021
2026-01-08 18:01:14.020,3940.2340425531916,-1874.0851063829787,-1608.1914893617022,4842.893617021276,5676.765957446809
2026-01-08 18:01:14.040,3940.3829787234044,-1874.9574468085107,-1607.404255319149,4843.553191489362,5676.617021276596
2026-01-08 18:01:14.060,3940.531914893617,-1875.8297872340424,-1606.6170212765958,4844.212765957447,5676.468085106383
2026-01-08 18:01:14.080,3940.68085106383,-1876.7021276595744,-1605.8297872340424,4844.872340425532,5676.31914893617
2026-01-08 18:01:14.100,3940.8297872340427,-1877.5744680851064,-1605.0425531914893,4845.531914893617,5676.170212765957
2026-01-08 18:01:14.120,3940.978723404255,-1878.4468085106382,-1604.2553191489362,4846.191489361702,5676.021276595745
2026-01-08 18:01:14.140,3941.127659574468,-1879.3191489361702,-1603.468085106383,4846.851063829788,5675.872340425532
2026-01-08 18:01:14.160,3941.276595744681,-1880.1914893617022,-1602.6808510638298,4847.510638297872,5675.723404255319
2026-01-08 18:01:14.180,3941.425531914894,-1881.063829787234,-1601.8936170212767,4848.170212765957,5675.574468085107
2026-01-08 18:01:14.200,3941.574468085106,-1881.936170212766,-1601.1063829787233,4848.829787234043,5675.425531914893
2026-01-08 18:01:14.220,3941.723404255319,-1882.8085106382978,-1600.3191489361702,4849.489361702128,5675.276595744681
2026-01-08 18:01:14.240,3941.872340425532,-1883.6808510638298,-1599.531914893617,4850.148936170212,5675.127659574468
2026-01-08 18:01:14.260,3942.021276595745,-1884.5531914893618,-1598.7446808510638,4850.808510638298,5674.978723404255
2026-01-08 18:01:14.280,3942.1702127659573,-1885.4255319148936,-1597.9574468085107,4851.468085106383,5674.829787234043
2026-01-08 18:01:14.300,3942.31914893617,-1886.2978723404256,-1597.1702127659573,4852.127659574468,5674.68085106383
2026-01-08 18:01:14.320,3942.468085106383,-1887.1702127659576,-1596.3829787234042,4852.787234042553,5674.531914893617
2026-01-08 18:01:14.340,3942.6170212765956,-1888.0425531914893,-1595.595744680851,4853.446808510638,5674.382978723404
2026-01-08 18:01:14.360,3942.7659574468084,-1888.9148936170213,-1594.8085106382978,4854.106382978724,5674.234042553191
2026-01-08 18:01:14.380,3942.9148936170213,-1889.787234042553,-1594.0212765957447,4854.765957446809,5674.085106382979
2026-01-08 18:01:14.400,3943.063829787234,-1890.659574468085,-1593.2340425531916,4855.425531914893,5673.936170212766
2026-01-08 18:01:14.420,3943.2127659574467,-1891.531914893617,-1592.4468085106382,4856.085106382979,5673.787234042553
2026-01-08 18:01:14.440,3943.3617021276596,-1892.404255319149,-1591.659574468085,4856.744680851064,5673.63829787234
2026-01-08 18:01:14.460,3943.5106382978724,-1893.276595744681,-1590.872340425532,4857.404255319149,5673.489361702128
2026-01-08 18:01:14.480,3943.659574468085,-1894.1489361702127,-1590.0851063829787,4858.063829787234,5673.340425531915
2026-01-08 18:01:14.500,3943.808510638298,-1895.0212765957447,-1589.2978723404256,4858.723404255319,5673.191489361702
2026-01-08 18:01:14.520,3943.9574468085107,-1895.8936170212767,-1588.5106382978724,4859.382978723404,5673.04255319149
2026-01-08 18:01:14.540,3944.1063829787236,-1896.7659574468084,-1587.723404255319,4860.04255319149,5672.893617021276
2026-01-08 18:01:14.560,3944.255319148936,-1897.6382978723404,-1586.936170212766,4860.702127659574,5672.744680851064
2026-01-08 18:01:14.580,3944.404255319149,-1898.5106382978724,-1586.1489361702127,4861.36170212766,5672.595744680851
2026-01-08 18:01:14.600,3944.553191489362,-1899.3829787234042,-1585.3617021276596,4862.021276595745,5672.446808510638
2026-01-08 18:01:14.620,3944.7021276595747,-1900.2553191489362,-1584.5744680851064,4862.68085106383,5672.297872340426
2026-01-08 18:01:14.640,3944.851063829787,-1901.127659574468,-1583.787234042553,4863.340425531915,5672.148936170212
2026-01-08 18:01:14.660,3945.0,-1902.0,-1583.0,4864.0,5672.0
2026-01-08 18:01:14.680,3903.8979591836733,-1862.4489795918366,-1582.4489795918366,4861.0,5672.265306122449
2026-01-08 18:01:14.700,3862.795918367347,-1822.8979591836735,-1581.8979591836735,4858.0,5672.530612244898
2026-01-08 18:01:14.720,3821.6938775510203,-1783.3469387755101,-1581.3469387755101,4855.0,5672.7959183673465
2026-01-08 18:01:14.740,3780.591836734694,-1743.795918367347,-1580.795918367347,4852.0,5673.061224489796
2026-01-08 18:01:14.760,3739.4897959183672,-1704.2448979591836,-1580.2448979591836,4849.0,5673.326530612245
2026-01-08 18:01:14.780,3698.387755102041,-1664.6938775510205,-1579.6938775510205,4846.0,5673.591836734694
2026-01-08 18:01:14.800,3657.285714285714,-1625.142857142857,-1579.142857142857,4843.0,5673.857142857143
2026-01-08 18:01:14.820,3616.183673469388,-1585.591836734694,-1578.591836734694,4840.0,5674.122448979592
2026-01-08 18:01:14.840,3575.081632653061,-1546.0408163265306,-1578.0408163265306,4837.0,5674.3877551020405
2026-01-08 18:01:14.860,3533.9795918367345,-1506.4897959183672,-1577.4897959183672,4834.0,5674.65306122449
2026-01-08 18:01:14.880,3492.877551020408,-1466.938775510204,-1576.938775510204,4831.0,5674.918367346939
2026-01-08 18:01:14.900,3451.775510204082,-1427.3877551020407,-1576.3877551020407,4828.0,5675.183673469388
2026-01-08 18:01:14.920,3410.673469387755,-1387.8367346938776,-1575.8367346938776,4825.0,5675.448979591837
2026-01-08 18:01:14.940,3369.5714285714284,-1348.2857142857142,-1575.2857142857142,4822.0,5675.714285714285
2026-01-08 18:01:14.960,3328.469387755102,-1308.7346938775509,-1574.734693877551,4819.0,5675.9795918367345
2026-01-08 18:01:14.980,3287.3673469387754,-1269.1836734693877,-1574.1836734693877,4816.0,5676.244897959184
2026-01-08 18:01:15.000,3246.265306122449,-1229.6326530612246,-1573.6326530612246,4813.0,5676.510204081633
2026-01-08 18:01:15.020,3205.1632653061224,-1190.0816326530612,-1573.0816326530612,4810.0,5676.775510204082
2026-01-08 18:01:15.040,3164.0612244897957,-1150.5306122448978,-1572.530612244898,4807.0,5677.040816326531
2026-01-08 18:01:15.060,3122.9591836734694,-1110.9795918367347,-1571.9795918367347,4804.0,5677.306122448979
2026-01-08 18:01:15.080,3081.857142857143,-1071.4285714285713,-1571.4285714285713,4801.0,5677.571428571428
2026-01-08 18:01:15.100,3040.7551020408164,-1031.8775510204082,-1570.8775510204082,4798.0,5677.836734693878
2026-01-08 18:01:15.120,2999.6530612244896,-992.3265306122448,-1570.3265306122448,4795.0,5678.102040816327
2026-01-08 18:01:15.140,2958.5510204081634,-952.7755102040816,-1569.7755102040817,4792.0,5678.367346938776
2026-01-08 18:01:15.160,2917.448979591837,-913.2244897959183,-1569.2244897959183,4789.0,5678.632653061224
2026-01-08 18:01:15.180,2876.3469387755104,-873.673469387755,-1568.6734693877552,4786.0,5678.897959183673
2026-01-08 18:01:15.200,2835.2448979591836,-834.1224489795918,-1568.1224489795918,4783.0,5679.163265306122
2026-01-08 18:01:15.220,2794.142857142857,-794.5714285714284,-1567.5714285714287,4780.0,5679.428571428572
2026-01-08 18:01:15.240,2753.0408163265306,-755.0204081632653,-1567.0204081632653,4777.0,5679.693877551021
2026-01-08 18:01:15.260,2711.9387755102043,-715.4693877551019,-1566.469387755102,4774.0,5679.959183673469
2026-01-08 18:01:15.280,2670.8367346938776,-675.9183673469388,-1565.9183673469388,4771.0,5680.224489795918
2026-01-08 18:01:15.300,2629.734693877551,-636.3673469387754,-1565.3673469387754,4768.0,5680.489795918367
2026-01-08 18:01:15.320,2588.6326530612246,-596.8163265306121,-1564.8163265306123,4765.0,5680.755102040816
2026-01-08 18:01:15.340,2547.5306122448983,-557.2653061224489,-1564.265306122449,4762.0,5681.0204081632655
2026-01-08 18:01:15.360,2506.4285714285716,-517.7142857142856,-1563.7142857142858,4759.0,5681.285714285715
2026-01-08 18:01:15.380,2465.326530612245,-478.1632653061224,-1563.1632653061224,4756.0,5681.551020408163
2026-01-08 18:01:15.400,2424.2244897959185,-438.61224489795904,-1562.6122448979593,4753.0,5681.816326530612
2026-01-08 18:01:15.420,2383.122448979592,-399.0612244897959,-1562.061224489796,4750.0,5682.081632653061
2026-01-08 18:01:15.440,2342.0204081632655,-359.51020408163254,-1561.5102040816328,4747.0,5682.34693877551
2026-01-08 18:01:15.460,2300.918367346939,-319.9591836734694,-1560.9591836734694,4744.0,5682.6122448979595
2026-01-08 18:01:15.480,2259.816326530612,-280.40816326530603,-1560.408163265306,4741.0,5682.877551020408
2026-01-08 18:01:15.500,2218.714285714286,-240.85714285714266,-1559.857142857143,4738.0,5683.142857142857
2026-01-08 18:01:15.520,2177.6122448979595,-201.30612244897952,-1559.3061224489795,4735.0,5683.408163265306
2026-01-08 18:01:15.540,2136.5102040816328,-161.75510204081615,-1558.7551020408164,4732.0,5683.673469387755
2026-01-08 18:01:15.560,2095.408163265306,-122.20408163265301,-1558.204081632653,4729.0,5683.938775510204
2026-01-08 18:01:15.580,2054.3061224489797,-82.65306122448965,-1557.6530612244899,4726.0,5684.2040816326535
2026-01-08 18:01:15.600,2013.2040816326532,-43.10204081632651,-1557.1020408163265,4723.0,5684.469387755102
2026-01-08 18:01:15.620,1972.1020408163267,-3.55102040816314,-1556.5510204081634,4720.0,5684.734693877551
2026-01-08 18:01:15.640,1931.0,36.0,-1556.0,4717.0,5685.0
2026-01-08 18:01:15.660,1967.1296296296296,36.7962962962963,-1557.2222222222222,4719.169811320755,5684.66037735849
2026-01-08 18:01:15.680,2003.2592592592594,37.592592592592595,-1558.4444444444443,4721.33962264151,5684.320754716981
2026-01-08 18:01:15.700,2039.388888888889,38.388888888888886,-1559.6666666666667,4723.509433962264,5683.981132075472
2026-01-08 18:01:15.720,2075.5185185185187,39.18518518518518,-1560.888888888889,4725.679245283019,5683.641509433963
2026-01-08 18:01:15.740,2111.6481481481483,39.98148148148148,-1562.111111111111,4727.8490566037735,5683.301886792453
2026-01-08 18:01:15.760,2147.777777777778,40.77777777777778,-1563.3333333333333,4730.018867924528,5682.962264150943
2026-01-08 18:01:15.780,2183.9074074074074,41.574074074074076,-1564.5555555555557,4732.188679245283,5682.622641509434
2026-01-08 18:01:15.800,2220.037037037037,42.37037037037037,-1565.7777777777778,4734.358490566037,5682.2830188679245
2026-01-08 18:01:15.820,2256.1666666666665,43.166666666666664,-1567.0,4736.528301886792,5681.943396226415
2026-01-08 18:01:15.840,2292.296296296296,43.96296296296296,-1568.2222222222222,4738.698113207547,5681.603773584906
2026-01-08 18:01:15.860,2328.425925925926,44.75925925925926,-1569.4444444444443,4740.867924528302,5681.264150943396
2026-01-08 18:01:15.880,2364.5555555555557,45.55555555555556,-1570.6666666666667,4743.037735849057,5680.924528301887
2026-01-08 18:01:15.900,2400.685185185185,46.35185185185185,-1571.888888888889,4745.207547169812,5680.584905660377
2026-01-08 18:01:15.920,2436.814814814815,47.14814814814815,-1573.111111111111,4747.377358490566,5680.245283018868
2026-01-08 18:01:15.940,2472.9444444444443,47.94444444444444,-1574.3333333333333,4749.547169811321,5679.905660377359
2026-01-08 18:01:15.960,2509.074074074074,48.74074074074074,-1575.5555555555557,4751.7169811320755,5679.566037735849
2026-01-08 18:01:15.980,2545.2037037037035,49.53703703703704,-1576.7777777777778,4753.88679245283,5679.226415094339
2026-01-08 18:01:16.000,2581.333333333333,50.33333333333333,-1578.0,4756.056603773585,5678.88679245283
2026-01-08 18:01:16.020,2617.462962962963,51.12962962962963,-1579.2222222222222,4758.226415094339,5678.547169811321
2026-01-08 18:01:16.040,2653.5925925925926,51.925925925925924,-1580.4444444444443,4760.396226415094,5678.207547169812
2026-01-08 18:01:16.060,2689.722222222222,52.72222222222222,-1581.6666666666667,4762.566037735849,5677.867924528302
2026-01-08 18:01:16.080,2725.8518518518517,53.51851851851852,-1582.888888888889,4764.735849056604,5677.528301886792
2026-01-08 18:01:16.100,2761.9814814814813,54.31481481481481,-1584.111111111111,4766.905660377359,5677.188679245283
2026-01-08 18:01:16.120,2798.1111111111113,55.111111111111114,-1585.3333333333333,4769.075471698113,5676.8490566037735
2026-01-08 18:01:16.140,2834.240740740741,55.907407407407405,-1586.5555555555557,4771.245283018868,5676.509433962264
2026-01-08 18:01:16.160,2870.3703703703704,56.7037037037037,-1587.7777777777778,4773.415094339623,5676.169811320755
2026-01-08 18:01:16.180,2906.5,57.5,-1589.0,4775.584905660377,5675.830188679245
2026-01-08 18:01:16.200,2942.6296296296296,58.2962962962963,-1590.2222222222222,4777.754716981132,5675.490566037736
2026-01-08 18:01:16.220,2978.759259259259,59.092592592592595,-1591.4444444444443,4779.924528301887,5675.1509433962265
2026-01-08 18:01:16.240,3014.8888888888887,59.888888888888886,-1592.6666666666667,4782.094339622641,5674.811320754717
2026-01-08 18:01:16.260,3051.0185185185182,60.68518518518518,-1593.888888888889,4784.264150943396,5674.471698113208
2026-01-08 18:01:16.280,3087.148148148148,61.48148148148148,-1595.111111111111,4786.433962264151,5674.132075471698
2026-01-08 18:01:16.300,3123.2777777777774,62.27777777777778,-1596.3333333333333,4788.603773584906,5673.792452830188
2026-01-08 18:01:16.320,3159.4074074074074,63.074074074074076,-1597.5555555555557,4790.773584905661,5673.452830188679
2026-01-08 18:01:16.340,3195.537037037037,63.87037037037037,-1598.7777777777778,4792.943396226415,5673.11320754717
2026-01-08 18:01:16.360,3231.6666666666665,64.66666666666666,-1600.0,4795.11320754717,5672.773584905661
2026-01-08 18:01:16.380,3267.796296296296,65.46296296296296,-1601.2222222222222,4797.2830188679245,5672.433962264151
2026-01-08 18:01:16.400,3303.925925925926,66.25925925925927,-1602.4444444444443,4799.452830188679,5672.094339622641
2026-01-08 18:01:16.420,3340.0555555555557,67.05555555555556,-1603.6666666666667,4801.622641509434,5671.754716981132
2026-01-08 18:01:16.440,3376.185185185185,67.85185185185185,-1604.888888888889,4803.792452830188,5671.415094339623
2026-01-08 18:01:16.460,3412.314814814815,68.64814814814815,-1606.111111111111,4805.962264150943,5671.075471698113
2026-01-08 18:01:16.480,3448.4444444444443,69.44444444444444,-1607.3333333333333,4808.132075471698,5670.735849056604
2026-01-08 18:01:16.500,3484.574074074074,70.24074074074073,-1608.5555555555557,4810.301886792453,5670.396226415094
2026-01-08 18:01:16.520,3520.7037037037035,71.03703703703704,-1609.7777777777778,4812.471698113208,5670.056603773585
2026-01-08 18:01:16.540,3556.833333333333,71.83333333333334,-1611.0,4814.641509433963,5669.7169811320755
2026-01-08 18:01:16.560,3592.9629629629626,72.62962962962962,-1612.2222222222222,4816.811320754717,5669.377358490566
2026-01-08 18:01:16.580,3629.092592592592,73.42592592592592,-1613.4444444444443,4818.981132075472,5669.037735849057
2026-01-08 18:01:16.600,3665.222222222222,74.22222222222223,-1614.6666666666667,4821.1509433962265,5668.698113207547
2026-01-08 18:01:16.620,3701.3518518518517,75.01851851851852,-1615.888888888889,4823.320754716981,5668.358490566037
2026-01-08 18:01:16.640,3737.4814814814813,75.81481481481481,-1617.111111111111,4825.490566037736,5668.018867924528
2026-01-08 18:01:16.660,3773.611111111111,76.61111111111111,-1618.3333333333333,4827.66037735849,5667.679245283019
2026-01-08 18:01:16.680,3809.740740740741,77.4074074074074,-1619.5555555555557,4829.830188679245,5667.33962264151
2026-01-08 18:01:16.700,3845.8703703703704,78.2037037037037,-1620.7777777777778,4832.0,5667.0
2026-01-08 18:01:16.720,3882.0,79.0,-1622.0,4832.2037037037035,5667.0
2026-01-08 18:01:16.740,3881.566037735849,78.9245283018868,-1621.811320754717,4832.407407407408,5667.0
2026-01-08 18:01:16.760,3881.132075471698,78.84905660377359,-1621.622641509434,4832.611111111111,5667.0
2026-01-08 18:01:16.780,3880.698113207547,78.77358490566037,-1621.433962264151,4832.814814814815,5667.0
2026-01-08 18:01:16.800,3880.264150943396,78.69811320754717,-1621.245283018868,4833.018518518518,5667.0
2026-01-08 18:01:16.820,3879.830188679245,78.62264150943396,-1621.0566037735848,4833.222222222223,5667.0
2026-01-08 18:01:16.840,3879.396226415094,78.54716981132076,-1620.867924528302,4833.425925925926,5667.0
2026-01-08 18:01:16.860,3878.9622641509436,78.47169811320755,-1620.6792452830189,4833.62962962963,5667.0
2026-01-08 18:01:16.880,3878.5283018867926,78.39622641509433,-1620.4905660377358,4833.833333333333,5667.0
2026-01-08 18:01:16.900,3878.0943396226417,78.32075471698113,-1620.301886792453,4834.037037037037,5667.0
2026-01-08 18:01:16.920,3877.6603773584907,78.24528301886792,-1620.1132075471698,4834.240740740741,5667.0
2026-01-08 18:01:16.940,3877.2264150943397,78.16981132075472,-1619.9245283018868,4834.444444444444,5667.0
2026-01-08 18:01:16.960,3876.7924528301887,78.09433962264151,-1619.7358490566037,4834.648148148148,5667.0
2026-01-08 18:01:16.980,3876.3584905660377,78.01886792452831,-1619.5471698113208,4834.851851851852,5667.0
2026-01-08 18:01:17.000,3875.9245283018868,77.94339622641509,-1619.3584905660377,4835.055555555556,5667.0
2026-01-08 18:01:17.020,3875.490566037736,77.86792452830188,-1619.1698113207547,4835.259259259259,5667.0
2026-01-08 18:01:17.040,3875.056603773585,77.79245283018868,-1618.9811320754718,4835.462962962963,5667.0
2026-01-08 18:01:17.060,3874.622641509434,77.71698113207547,-1618.7924528301887,4835.666666666667,5667.0
2026-01-08 18:01:17.080,3874.188679245283,77.64150943396227,-1618.6037735849056,4835.87037037037,5667.0
2026-01-08 18:01:17.100,3873.754716981132,77.56603773584905,-1618.4150943396226,4836.074074074074,5667.0
2026-01-08 18:01:17.120,3873.3207547169814,77.49056603773585,-1618.2264150943397,4836.277777777777,5667.0
2026-01-08 18:01:17.140,3872.8867924528304,77.41509433962264,-1618.0377358490566,4836.481481481482,5667.0
2026-01-08 18:01:17.160,3872.4528301886794,77.33962264150944,-1617.8490566037735,4836.685185185185,5667.0
2026-01-08 18:01:17.180,3872.0188679245284,77.26415094339623,-1617.6603773584907,4836.888888888889,5667.0
2026-01-08 18:01:17.200,3871.5849056603774,77.18867924528301,-1617.4716981132076,4837.092592592592,5667.0
2026-01-08 18:01:17.220,3871.1509433962265,77.11320754716981,-1617.2830188679245,4837.2962962962965,5667.0
2026-01-08 18:01:17.240,3870.7169811320755,77.0377358490566,-1617.0943396226414,4837.5,5667.0
2026-01-08 18:01:17.260,3870.2830188679245,76.9622641509434,-1616.9056603773586,4837.7037037037035,5667.0
2026-01-08 18:01:17.280,3869.8490566037735,76.88679245283019,-1616.7169811320755,4837.907407407408,5667.0
2026-01-08 18:01:17.300,3869.4150943396226,76.81132075471699,-1616.5283018867924,4838.111111111111,5667.0
2026-01-08 18:01:17.320,3868.9811320754716,76.73584905660377,-1616.3396226415093,4838.314814814815,5667.0
2026-01-08 18:01:17.340,3868.5471698113206,76.66037735849056,-1616.1509433962265,4838.518518518518,5667.0
2026-01-08 18:01:17.360,3868.1132075471696,76.58490566037736,-1615.9622641509434,4838.722222222223,5667.0
2026-01-08 18:01:17.380,3867.6792452830186,76.50943396226415,-1615.7735849056603,4838.925925925926,5667.0
2026-01-08 18:01:17.400,3867.245283018868,76.43396226415095,-1615.5849056603774,4839.12962962963,5667.0
2026-01-08 18:01:17.420,3866.811320754717,76.35849056603773,-1615.3962264150944,4839.333333333333,5667.0
2026-01-08 18:01:17.440,3866.377358490566,76.28301886792453,-1615.2075471698113,4839.537037037037,5667.0
2026-01-08 18:01:17.460,3865.943396226415,76.20754716981132,-1615.0188679245282,4839.740740740741,5667.0
2026-01-08 18:01:17.480,3865.509433962264,76.13207547169812,-1614.8301886792453,4839.944444444444,5667.0
2026-01-08 18:01:17.500,3865.0754716981132,76.05660377358491,-1614.6415094339623,4840.148148148148,5667.0
2026-01-08 18:01:17.520,3864.6415094339623,75.98113207547169,-1614.4528301886792,4840.351851851852,5667.0
2026-01-08 18:01:17.540,3864.2075471698113,75.90566037735849,-1614.2641509433963,4840.555555555556,5667.0
2026-01-08 18:01:17.560,3863.7735849056603,75.83018867924528,-1614.0754716981132,4840.759259259259,5667.0
2026-01-08 18:01:17.580,3863.3396226415093,75.75471698113208,-1613.8867924528302,4840.962962962963,5667.0
2026-01-08 18:01:17.600,3862.9056603773583,75.67924528301887,-1613.698113207547,4841.166666666667,5667.0
2026-01-08 18:01:17.620,3862.4716981132074,75.60377358490567,-1613.5094339622642,4841.37037037037,5667.0
2026-01-08 18:01:17.640,3862.0377358490564,75.52830188679245,-1613.3207547169811,4841.574074074074,5667.0
2026-01-08 18:01:17.660,3861.603773584906,75.45283018867924,-1613.132075471698,4841.777777777777,5667.0
2026-01-08 18:01:17.680,3861.169811320755,75.37735849056604,-1612.9433962264152,4841.981481481482,5667.0
2026-01-08 18:01:17.700,3860.735849056604,75.30188679245283,-1612.754716981132,4842.185185185185,5667.0
2026-01-08 18:01:17.720,3860.301886792453,75.22641509433963,-1612.566037735849,4842.388888888889,5667.0
2026-01-08 18:01:17.740,3859.867924528302,75.15094339622641,-1612.377358490566,4842.592592592592,5667.0
2026-01-08 18:01:17.760,3859.433962264151,75.0754716981132,-1612.188679245283,4842.7962962962965,5667.0
2026-01-08 18:01:17.780,3859.0,75.0,-1612.0,4843.0,5667.0
2026-01-08 18:01:17.800,3858.953488372093,74.30232558139535,-1612.0,4843.209302325581,5667.093023255814
2026-01-08 18:01:17.820,3858.906976744186,73.6046511627907,-1612.0,4843.418604651163,5667.186046511628
2026-01-08 18:01:17.840,3858.860465116279,72.90697674418604,-1612.0,4843.627906976744,5667.279069767442
2026-01-08 18:01:17.860,3858.813953488372,72.20930232558139,-1612.0,4843.837209302325,5667.372093023256
2026-01-08 18:01:17.880,3858.767441860465,71.51162790697674,-1612.0,4844.046511627907,5667.46511627907
2026-01-08 18:01:17.900,3858.720930232558,70.81395348837209,-1612.0,4844.2558139534885,5667.558139534884
2026-01-08 18:01:17.920,3858.6744186046512,70.11627906976744,-1612.0,4844.46511627907,5667.6511627906975
2026-01-08 18:01:17.940,3858.6279069767443,69.4186046511628,-1612.0,4844.674418604651,5667.7441860465115
2026-01-08 18:01:17.960,3858.5813953488373,68.72093023255815,-1612.0,4844.883720930233,5667.837209302325
2026-01-08 18:01:17.980,3858.5348837209303,68.02325581395348,-1612.0,4845.093023255814,5667.930232558139
2026-01-08 18:01:18.000,3858.4883720930234,67.32558139534883,-1612.0,4845.302325581395,5668.023255813953
2026-01-08 18:01:18.020,3858.4418604651164,66.62790697674419,-1612.0,4845.511627906977,5668.116279069767
2026-01-08 18:01:18.040,3858.3953488372094,65.93023255813954,-1612.0,4845.720930232558,5668.209302325581
2026-01-08 18:01:18.060,3858.3488372093025,65.23255813953489,-1612.0,4845.930232558139,5668.302325581395
2026-01-08 18:01:18.080,3858.3023255813955,64.53488372093022,-1612.0,4846.139534883721,5668.395348837209
2026-01-08 18:01:18.100,3858.2558139534885,63.83720930232558,-1612.0,4846.3488372093025,5668.488372093023
2026-01-08 18:01:18.120,3858.2093023255816,63.13953488372093,-1612.0,4846.558139534884,5668.581395348837
2026-01-08 18:01:18.140,3858.1627906976746,62.44186046511628,-1612.0,4846.767441860465,5668.674418604651
2026-01-08 18:01:18.160,3858.1162790697676,61.74418604651163,-1612.0,4846.976744186047,5668.767441860465
2026-01-08 18:01:18.180,3858.0697674418607,61.04651162790698,-1612.0,4847.186046511628,5668.860465116279
2026-01-08 18:01:18.200,3858.0232558139537,60.348837209302324,-1612.0,4847.395348837209,5668.953488372093
2026-01-08 18:01:18.220,3857.9767441860463,59.651162790697676,-1612.0,4847.604651162791,5669.046511627907
2026-01-08 18:01:18.240,3857.9302325581393,58.95348837209302,-1612.0,4847.813953488372,5669.139534883721
2026-01-08 18:01:18.260,3857.8837209302324,58.25581395348837,-1612.0,4848.023255813953,5669.232558139535
2026-01-08 18:01:18.280,3857.8372093023254,57.55813953488372,-1612.0,4848.232558139535,5669.325581395349
2026-01-08 18:01:18.300,3857.7906976744184,56.86046511627907,-1612.0,4848.441860465116,5669.418604651163
2026-01-08 18:01:18.320,3857.7441860465115,56.16279069767442,-1612.0,4848.6511627906975,5669.511627906977
2026-01-08 18:01:18.340,3857.6976744186045,55.46511627906977,-1612.0,4848.860465116279,5669.604651162791
2026-01-08 18:01:18.360,3857.6511627906975,54.76744186046511,-1612.0,4849.069767441861,5669.697674418605
2026-01-08 18:01:18.380,3857.6046511627906,54.06976744186046,-1612.0,4849.279069767442,5669.790697674419
2026-01-08 18:01:18.400,3857.5581395348836,53.372093023255815,-1612.0,4849.488372093023,5669.883720930233
2026-01-08 18:01:18.420,3857.5116279069766,52.674418604651166,-1612.0,4849.697674418605,5669.976744186047
2026-01-08 18:01:18.440,3857.4651162790697,51.97674418604651,-1612.0,4849.906976744186,5670.069767441861
2026-01-08 18:01:18.460,3857.4186046511627,51.27906976744186,-1612.0,4850.116279069767,5670.162790697675
2026-01-08 18:01:18.480,3857.3720930232557,50.581395348837205,-1612.0,4850.325581395349,5670.2558139534885
2026-01-08 18:01:18.500,3857.3255813953488,49.883720930232556,-1612.0,4850.53488372093,5670.3488372093025
2026-01-08 18:01:18.520,3857.279069767442,49.18604651162791,-1612.0,4850.7441860465115,5670.441860465116
2026-01-08 18:01:18.540,3857.232558139535,48.48837209302326,-1612.0,4850.953488372093,5670.53488372093
2026-01-08 18:01:18.560,3857.186046511628,47.7906976744186,-1612.0,4851.162790697675,5670.627906976744
2026-01-08 18:01:18.580,3857.139534883721,47.093023255813954,-1612.0,4851.372093023256,5670.720930232558
2026-01-08 18:01:18.600,3857.093023255814,46.3953488372093,-1612.0,4851.581395348837,5670.813953488372
2026-01-08 18:01:18.620,3857.046511627907,45.69767441860465,-1612.0,4851.790697674419,5670.906976744186
2026-01-08 18:01:18.640,3857.0,45.0,-1612.0,4852.0,5671.0
2026-01-08 18:01:18.660,3857.7924528301887,45.9622641509434,-1612.4905660377358,4852.075471698113,5671.0
2026-01-08 18:01:18.680,3858.5849056603774,46.924528301886795,-1612.9811320754718,4852.1509433962265,5671.0
2026-01-08 18:01:18.700,3859.377358490566,47.886792452830186,-1613.4716981132076,4852.226415094339,5671.0
2026-01-08 18:01:18.720,3860.169811320755,48.84905660377358,-1613.9622641509434,4852.301886792453,5671.0
2026-01-08 18:01:18.740,3860.9622641509436,49.81132075471698,-1614.4528301886792,4852.377358490566,5671.0
2026-01-08 18:01:18.760,3861.754716981132,50.77358490566038,-1614.9433962264152,4852.452830188679,5671.0
2026-01-08 18:01:18.780,3862.5471698113206,51.735849056603776,-1615.433962264151,4852.528301886792,5671.0
2026-01-08 18:01:18.800,3863.3396226415093,52.698113207547166,-1615.9245283018868,4852.603773584906,5671.0
2026-01-08 18:01:18.820,3864.132075471698,53.660377358490564,-1616.4150943396226,4852.679245283019,5671.0
2026-01-08 18:01:18.840,3864.9245283018868,54.62264150943396,-1616.9056603773586,4852.754716981132,5671.0
2026-01-08 18:01:18.860,3865.7169811320755,55.58490566037736,-1617.3962264150944,4852.830188679245,5671.0
2026-01-08 18:01:18.880,3866.509433962264,56.54716981132076,-1617.8867924528302,4852.905660377359,5671.0
2026-01-08 18:01:18.900,3867.301886792453,57.509433962264154,-1618.377358490566,4852.981132075472,5671.0
2026-01-08 18:01:18.920,3868.0943396226417,58.47169811320755,-1618.867924528302,4853.056603773585,5671.0
2026-01-08 18:01:18.940,3868.8867924528304,59.43396226415094,-1619.3584905660377,4853.132075471698,5671.0
2026-01-08 18:01:18.960,3869.6792452830186,60.39622641509434,-1619.8490566037735,4853.207547169812,5671.0
2026-01-08 18:01:18.980,3870.4716981132074,61.35849056603774,-1620.3396226415093,4853.2830188679245,5671.0
2026-01-08 18:01:19.000,3871.264150943396,62.32075471698113,-1620.8301886792453,4853.358490566037,5671.0
2026-01-08 18:01:19.020,3872.056603773585,63.283018867924525,-1621.3207547169811,4853.433962264151,5671.0
2026-01-08 18:01:19.040,3872.8490566037735,64.24528301886792,-1621.811320754717,4853.509433962264,5671.0
2026-01-08 18:01:19.060,3873.6415094339623,65.20754716981132,-1622.301886792453,4853.584905660377,5671.0
2026-01-08 18:01:19.080,3874.433962264151,66.16981132075472,-1622.7924528301887,4853.66037735849,5671.0
2026-01-08 18:01:19.100,3875.2264150943397,67.13207547169812,-1623.2830188679245,4853.735849056604,5671.0
2026-01-08 18:01:19.120,3876.0188679245284,68.09433962264151,-1623.7735849056603,4853.811320754717,5671.0
2026-01-08 18:01:19.140,3876.811320754717,69.05660377358491,-1624.2641509433963,4853.88679245283,5671.0
2026-01-08 18:01:19.160,3877.603773584906,70.01886792452831,-1624.754716981132,4853.962264150943,5671.0
2026-01-08 18:01:19.180,3878.396226415094,70.98113207547169,-1625.245283018868,4854.037735849057,5671.0
2026-01-08 18:01:19.200,3879.188679245283,71.9433962264151,-1625.7358490566037,4854.11320754717,5671.0
2026-01-08 18:01:19.220,3879.9811320754716,72.90566037735849,-1626.2264150943397,4854.188679245283,5671.0
2026-01-08 18:01:19.240,3880.7735849056603,73.86792452830188,-1626.7169811320755,4854.264150943396,5671.0
2026-01-08 18:01:19.260,3881.566037735849,74.83018867924528,-1627.2075471698113,4854.33962264151,5671.0
2026-01-08 18:01:19.280,3882.3584905660377,75.79245283018868,-1627.698113207547,4854.415094339623,5671.0
2026-01-08 18:01:19.300,3883.1509433962265,76.75471698113208,-1628.188679245283,4854.490566037736,5671.0
2026-01-08 18:01:19.320,3883.943396226415,77.71698113207547,-1628.6792452830189,4854.566037735849,5671.0
2026-01-08 18:01:19.340,3884.735849056604,78.67924528301887,-1629.1698113207547,4854.641509433963,5671.0
2026-01-08 18:01:19.360,3885.5283018867926,79.64150943396226,-1629.6603773584907,4854.7169811320755,5671.0
2026-01-08 18:01:19.380,3886.3207547169814,80.60377358490567,-1630.1509433962265,4854.792452830188,5671.0
2026-01-08 18:01:19.400,3887.1132075471696,81.56603773584905,-1630.6415094339623,4854.867924528302,5671.0
2026-01-08 18:01:19.420,3887.9056603773583,82.52830188679246,-1631.132075471698,4854.943396226415,5671.0
2026-01-08 18:01:19.440,3888.698113207547,83.49056603773585,-1631.622641509434,4855.018867924528,5671.0
2026-01-08 18:01:19.460,3889.490566037736,84.45283018867924,-1632.1132075471698,4855.094339622641,5671.0
2026-01-08 18:01:19.480,3890.2830188679245,85.41509433962264,-1632.6037735849056,4855.169811320755,5671.0
2026-01-08 18:01:19.500,3891.0754716981132,86.37735849056604,-1633.0943396226414,4855.245283018868,5671.0
2026-01-08 18:01:19.520,3891.867924528302,87.33962264150944,-1633.5849056603774,4855.320754716981,5671.0
2026-01-08 18:01:19.540,3892.6603773584907,88.30188679245283,-1634.0754716981132,4855.396226415094,5671.0
2026-01-08 18:01:19.560,3893.4528301886794,89.26415094339623,-1634.566037735849,4855.471698113208,5671.0
2026-01-08 18:01:19.580,3894.245283018868,90.22641509433961,-1635.0566037735848,4855.547169811321,5671.0
2026-01-08 18:01:19.600,3895.0377358490564,91.18867924528303,-1635.5471698113208,4855.622641509434,5671.0
2026-01-08 18:01:19.620,3895.830188679245,92.15094339622641,-1636.0377358490566,4855.698113207547,5671.0
2026-01-08 18:01:19.640,3896.622641509434,93.11320754716982,-1636.5283018867924,4855.773584905661,5671.0
2026-01-08 18:01:19.660,3897.4150943396226,94.0754716981132,-1637.0188679245282,4855.8490566037735,5671.0
2026-01-08 18:01:19.680,3898.2075471698113,95.0377358490566,-1637.5094339622642,4855.924528301887,5671.0
2026-01-08 18:01:19.700,3899.0,96.0,-1638.0,4856.0,5671.0
2026-01-08 18:01:19.720,3899.4583333333335,54.5625,-1637.5,4856.145833333333,5670.916666666667
2026-01-08 18:01:19.740,3899.9166666666665,13.125,-1637.0,4856.291666666667,5670.833333333333
2026-01-08 18:01:19.760,3900.375,-28.3125,-1636.5,4856.4375,5670.75
2026-01-08 18:01:19.780,3900.8333333333335,-69.75,-1636.0,4856.583333333333,5670.666666666667
2026-01-08 18:01:19.800,3901.2916666666665,-111.1875,-1635.5,4856.729166666667,5670.583333333333
2026-01-08 18:01:19.820,3901.75,-152.625,-1635.0,4856.875,5670.5
2026-01-08 18:01:19.840,3902.2083333333335,-194.0625,-1634.5,4857.020833333333,5670.416666666667
2026-01-08 18:01:19.860,3902.6666666666665,-235.5,-1634.0,4857.166666666667,5670.333333333333
2026-01-08 18:01:19.880,3903.125,-276.9375,-1633.5,4857.3125,5670.25
2026-01-08 18:01:19.900,3903.5833333333335,-318.375,-1633.0,4857.458333333333,5670.166666666667
2026-01-08 18:01:19.920,3904.0416666666665,-359.8125,-1632.5,4857.604166666667,5670.083333333333
2026-01-08 18:01:19.940,3904.5,-401.25,-1632.0,4857.75,5670.0
2026-01-08 18:01:19.960,3904.9583333333335,-442.6875,-1631.5,4857.895833333333,5669.916666666667
2026-01-08 18:01:19.980,3905.4166666666665,-484.125,-1631.0,4858.041666666667,5669.833333333333
2026-01-08 18:01:20.000,3905.875,-525.5625,-1630.5,4858.1875,5669.75
2026-01-08 18:01:20.020,3906.3333333333335,-567.0,-1630.0,4858.333333333333,5669.666666666667
2026-01-08 18:01:20.040,3906.7916666666665,-608.4375,-1629.5,4858.479166666667,5669.583333333333
2026-01-08 18:01:20.060,3907.25,-649.875,-1629.0,4858.625,5669.5
2026-01-08 18:01:20.080,3907.7083333333335,-691.3125,-1628.5,4858.770833333333,5669.416666666667
2026-01-08 18:01:20.100,3908.1666666666665,-732.75,-1628.0,4858.916666666667,5669.333333333333
2026-01-08 18:01:20.120,3908.625,-774.1875,-1627.5,4859.0625,5669.25
2026-01-08 18:01:20.140,3909.0833333333335,-815.625,-1627.0,4859.208333333333,5669.166666666667
2026-01-08 18:01:20.160,3909.5416666666665,-857.0625,-1626.5,4859.354166666667,5669.083333333333
2026-01-08 18:01:20.180,3910.0,-898.5,-1626.0,4859.5,5669.0
2026-01-08 18:01:20.200,3910.4583333333335,-939.9375,-1625.5,4859.645833333333,5668.916666666667
2026-01-08 18:01:20.220,3910.9166666666665,-981.375,-1625.0,4859.791666666667,5668.833333333333
2026-01-08 18:01:20.240,3911.375,-1022.8125,-1624.5,4859.9375,5668.75
2026-01-08 18:01:20.260,3911.8333333333335,-1064.25,-1624.0,4860.083333333333,5668.666666666667
2026-01-08 18:01:20.280,3912.2916666666665,-1105.6875,-1623.5,4860.229166666667,5668.583333333333
2026-01-08 18:01:20.300,3912.75,-1147.125,-1623.0,4860.375,5668.5
2026-01-08 18:01:20.320,3913.2083333333335,-1188.5625,-1622.5,4860.520833333333,5668.416666666667
2026-01-08 18:01:20.340,3913.6666666666665,-1230.0,-1622.0,4860.666666666667,5668.333333333333
2026-01-08 18:01:20.360,3914.125,-1271.4375,-1621.5,4860.8125,5668.25
2026-01-08 18:01:20.380,3914.5833333333335,-1312.875,-1621.0,4860.958333333333,5668.166666666667
2026-01-08 18:01:20.400,3915.0416666666665,-1354.3125,-1620.5,4861.104166666667,5668.083333333333
2026-01-08 18:01:20.420,3915.5,-1395.75,-1620.0,4861.25,5668.0
2026-01-08 18:01:20.440,3915.9583333333335,-1437.1875,-1619.5,4861.395833333333,5667.916666666667
2026-01-08 18:01:20.460,3916.4166666666665,-1478.625,-1619.0,4861.541666666667,5667.833333333333
2026-01-08 18:01:20.480,3916.875,-1520.0625,-1618.5,4861.6875,5667.75
2026-01-08 18:01:20.500,3917.3333333333335,-1561.5,-1618.0,4861.833333333333,5667.666666666667
2026-01-08 18:01:20.520,3917.7916666666665,-1602.9375,-1617.5,4861.979166666667,5667.583333333333
2026-01-08 18:01:20.540,3918.25,-1644.375,-1617.0,4862.125,5667.5
2026-01-08 18:01:20.560,3918.7083333333335,-1685.8125,-1616.5,4862.270833333333,5667.416666666667
2026-01-08 18:01:20.580,3919.1666666666665,-1727.25,-1616.0,4862.416666666667,5667.333333333333
2026-01-08 18:01:20.600,3919.625,-1768.6875,-1615.5,4862.5625,5667.25
2026-01-08 18:01:20.620,3920.0833333333335,-1810.125,-1615.0,4862.708333333333,5667.166666666667
2026-01-08 18:01:20.640,3920.5416666666665,-1851.5625,-1614.5,4862.854166666667,5667.083333333333
2026-01-08 18:01:20.660,3921.0,-1893.0,-1614.0,4863.0,5667.0
2026-01-08 18:01:20.680,3921.0833333333335,-1893.0833333333333,-1614.0625,4863.104166666667,5666.895833333333
2026-01-08 18:01:20.700,3921.1666666666665,-1893.1666666666667,-1614.125,4863.208333333333,5666.791666666667
2026-01-08 18:01:20.720,3921.25,-1893.25,-1614.1875,4863.3125,5666.6875
2026-01-08 18:01:20.740,3921.3333333333335,-1893.3333333333333,-1614.25,4863.416666666667,5666.583333333333
