timestamp,accX,accY,accZ,ppg,spO2
2026-01-08 18:02:03.100,3933.0,77.0,-1632.0,5007.0,5620.0
2026-01-08 18:02:03.120,3892.9795918367345,76.75510204081633,-1587.3469387755101,5004.551020408163,5626.775510204082
2026-01-08 18:02:03.140,3852.9591836734694,76.51020408163265,-1542.6938775510205,5002.102040816327,5633.551020408163
2026-01-08 18:02:03.160,3812.938775510204,76.26530612244898,-1498.0408163265306,4999.65306122449,5640.326530612245
2026-01-08 18:02:03.180,3772.918367346939,76.0204081632653,-1453.3877551020407,4997.2040816326535,5647.102040816327
2026-01-08 18:02:03.200,3732.8979591836733,75.77551020408163,-1408.734693877551,4994.755102040816,5653.877551020408
2026-01-08 18:02:03.220,3692.877551020408,75.53061224489795,-1364.0816326530612,4992.306122448979,5660.65306122449
2026-01-08 18:02:03.240,3652.8571428571427,75.28571428571429,-1319.4285714285716,4989.857142857143,5667.428571428572
2026-01-08 18:02:03.260,3612.8367346938776,75.04081632653062,-1274.7755102040817,4987.408163265306,5674.2040816326535
2026-01-08 18:02:03.280,3572.816326530612,74.79591836734694,-1230.1224489795918,4984.959183673469,5680.9795918367345
2026-01-08 18:02:03.300,3532.795918367347,74.55102040816327,-1185.4693877551022,4982.510204081633,5687.755102040816
2026-01-08 18:02:03.320,3492.7755102040815,74.3061224489796,-1140.8163265306123,4980.061224489796,5694.530612244898
2026-01-08 18:02:03.340,3452.7551020408164,74.06122448979592,-1096.1632653061224,4977.6122448979595,5701.306122448979
2026-01-08 18:02:03.360,3412.734693877551,73.81632653061224,-1051.5102040816328,4975.163265306122,5708.081632653061
2026-01-08 18:02:03.380,3372.714285714286,73.57142857142857,-1006.8571428571429,4972.714285714285,5714.857142857143
2026-01-08 18:02:03.400,3332.6938775510203,73.3265306122449,-962.204081632653,4970.265306122449,5721.632653061224
2026-01-08 18:02:03.420,3292.673469387755,73.08163265306122,-917.5510204081633,4967.816326530612,5728.408163265306
2026-01-08 18:02:03.440,3252.6530612244896,72.83673469387755,-872.8979591836735,4965.367346938776,5735.183673469388
2026-01-08 18:02:03.460,3212.6326530612246,72.59183673469389,-828.2448979591836,4962.918367346939,5741.959183673469
2026-01-08 18:02:03.480,3172.612244897959,72.34693877551021,-783.5918367346939,4960.469387755102,5748.734693877551
2026-01-08 18:02:03.500,3132.591836734694,72.10204081632654,-738.9387755102041,4958.0204081632655,5755.510204081633
2026-01-08 18:02:03.520,3092.5714285714284,71.85714285714286,-694.2857142857142,4955.571428571428,5762.285714285715
2026-01-08 18:02:03.540,3052.5510204081634,71.61224489795919,-649.6326530612245,4953.122448979592,5769.061224489796
2026-01-08 18:02:03.560,3012.530612244898,71.36734693877551,-604.9795918367347,4950.673469387755,5775.836734693878
2026-01-08 18:02:03.580,2972.5102040816328,71.12244897959184,-560.3265306122448,4948.224489795918,5782.6122448979595
2026-01-08 18:02:03.600,2932.4897959183672,70.87755102040816,-515.6734693877552,4945.775510204082,5789.3877551020405
2026-01-08 18:02:03.620,2892.4693877551017,70.63265306122449,-471.0204081632653,4943.326530612245,5796.163265306122
2026-01-08 18:02:03.640,2852.4489795918366,70.38775510204081,-426.3673469387754,4940.877551020408,5802.938775510204
2026-01-08 18:02:03.660,2812.4285714285716,70.14285714285714,-381.7142857142858,4938.428571428572,5809.714285714285
2026-01-08 18:02:03.680,2772.408163265306,69.89795918367346,-337.0612244897959,4935.9795918367345,5816.489795918367
2026-01-08 18:02:03.700,2732.3877551020405,69.65306122448979,-292.40816326530603,4933.530612244898,5823.265306122449
2026-01-08 18:02:03.720,2692.3673469387754,69.40816326530613,-247.75510204081638,4931.081632653061,5830.040816326531
2026-01-08 18:02:03.740,2652.3469387755104,69.16326530612245,-203.1020408163265,4928.632653061224,5836.816326530612
2026-01-08 18:02:03.760,2612.326530612245,68.91836734693878,-158.44897959183663,4926.183673469388,5843.591836734694
2026-01-08 18:02:03.780,2572.3061224489793,68.6734693877551,-113.79591836734699,4923.734693877551,5850.367346938776
2026-01-08 18:02:03.800,2532.285714285714,68.42857142857143,-69.14285714285711,4921.285714285715,5857.142857142857
2026-01-08 18:02:03.820,2492.265306122449,68.18367346938776,-24.489795918367236,4918.836734693878,5863.918367346939
2026-01-08 18:02:03.840,2452.2448979591836,67.93877551020408,20.163265306122412,4916.3877551020405,5870.693877551021
2026-01-08 18:02:03.860,2412.224489795918,67.6938775510204,64.81632653061229,4913.938775510204,5877.469387755102
2026-01-08 18:02:03.880,2372.204081632653,67.44897959183673,109.46938775510216,4911.489795918367,5884.244897959184
2026-01-08 18:02:03.900,2332.183673469388,67.20408163265306,154.1224489795918,4909.040816326531,5891.0204081632655
2026-01-08 18:02:03.920,2292.1632653061224,66.95918367346938,198.77551020408168,4906.591836734694,5897.7959183673465
2026-01-08 18:02:03.940,2252.142857142857,66.71428571428572,243.42857142857156,4904.142857142857,5904.571428571428
2026-01-08 18:02:03.960,2212.122448979592,66.46938775510205,288.0816326530612,4901.693877551021,5911.34693877551
2026-01-08 18:02:03.980,2172.1020408163267,66.22448979591837,332.7346938775511,4899.244897959184,5918.122448979592
2026-01-08 18:02:04.000,2132.081632653061,65.9795918367347,377.38775510204096,4896.7959183673465,5924.897959183673
2026-01-08 18:02:04.020,2092.0612244897957,65.73469387755102,422.0408163265306,4894.34693877551,5931.673469387755
2026-01-08 18:02:04.040,2052.0408163265306,65.48979591836735,466.69387755102025,4891.897959183673,5938.448979591837
2026-01-08 18:02:04.060,2012.020408163265,65.24489795918367,511.34693877551035,4889.448979591837,5945.224489795918
2026-01-08 18:02:04.080,1972.0,65.0,556.0,4887.0,5952.0
2026-01-08 18:02:04.100,1971.38,25.880000000000003,513.44,4888.74,5945.52
2026-01-08 18:02:04.120,1970.76,-13.239999999999995,470.88,4890.48,5939.04
2026-01-08 18:02:04.140,1970.14,-52.359999999999985,428.32,4892.22,5932.56
2026-01-08 18:02:04.160,1969.52,-91.47999999999999,385.76,4893.96,5926.08
2026-01-08 18:02:04.180,1968.9,-130.6,343.2,4895.7,5919.6
2026-01-08 18:02:04.200,1968.28,-169.71999999999997,300.64,4897.44,5913.12
2026-01-08 18:02:04.220,1967.66,-208.83999999999997,258.08,4899.18,5906.64
2026-01-08 18:02:04.240,1967.04,-247.95999999999998,215.51999999999998,4900.92,5900.16
2026-01-08 18:02:04.260,1966.42,-287.08,172.95999999999998,4902.66,5893.68
2026-01-08 18:02:04.280,1965.8,-326.2,130.39999999999998,4904.4,5887.2
2026-01-08 18:02:04.300,1965.18,-365.32,87.83999999999997,4906.14,5880.72
2026-01-08 18:02:04.320,1964.56,-404.43999999999994,45.27999999999997,4907.88,5874.24
2026-01-08 18:02:04.340,1963.94,-443.55999999999995,2.7200000000000273,4909.62,5867.76
2026-01-08 18:02:04.360,1963.32,-482.67999999999995,-39.84000000000003,4911.36,5861.28
2026-01-08 18:02:04.380,1962.7,-521.8,-82.40000000000009,4913.1,5854.8
2026-01-08 18:02:04.400,1962.08,-560.92,-124.96000000000004,4914.84,5848.32
2026-01-08 18:02:04.420,1961.46,-600.04,-167.51999999999998,4916.58,5841.84
2026-01-08 18:02:04.440,1960.84,-639.16,-210.08000000000004,4918.32,5835.36
2026-01-08 18:02:04.460,1960.22,-678.28,-252.6400000000001,4920.06,5828.88
2026-01-08 18:02:04.480,1959.6,-717.4,-295.20000000000005,4921.8,5822.4
2026-01-08 18:02:04.500,1958.98,-756.52,-337.76,4923.54,5815.92
2026-01-08 18:02:04.520,1958.36,-795.64,-380.32000000000005,4925.28,5809.44
2026-01-08 18:02:04.540,1957.74,-834.76,-422.8800000000001,4927.02,5802.96
2026-01-08 18:02:04.560,1957.12,-873.8799999999999,-465.44000000000005,4928.76,5796.48
2026-01-08 18:02:04.580,1956.5,-912.9999999999999,-508.0,4930.5,5790.0
2026-01-08 18:02:04.600,1955.88,-952.1199999999999,-550.56,4932.24,5783.52
2026-01-08 18:02:04.620,1955.26,-991.24,-593.1200000000001,4933.98,5777.04
2026-01-08 18:02:04.640,1954.64,-1030.36,-635.6800000000001,4935.72,5770.56
2026-01-08 18:02:04.660,1954.02,-1069.48,-678.24,4937.46,5764.08
2026-01-08 18:02:04.680,1953.4,-1108.6,-720.8000000000002,4939.2,5757.6
2026-01-08 18:02:04.700,1952.78,-1147.72,-763.3600000000001,4940.94,5751.12
2026-01-08 18:02:04.720,1952.16,-1186.84,-805.9200000000001,4942.68,5744.64
2026-01-08 18:02:04.740,1951.54,-1225.9599999999998,-848.48,4944.42,5738.16
2026-01-08 18:02:04.760,1950.92,-1265.08,-891.04,4946.16,5731.68
2026-01-08 18:02:04.780,1950.3,-1304.1999999999998,-933.6000000000001,4947.9,5725.2
2026-01-08 18:02:04.800,1949.68,-1343.32,-976.1600000000001,4949.64,5718.72
2026-01-08 18:02:04.820,1949.06,-1382.4399999999998,-1018.72,4951.38,5712.24
2026-01-08 18:02:04.840,1948.44,-1421.56,-1061.2800000000002,4953.12,5705.76
2026-01-08 18:02:04.860,1947.82,-1460.6799999999998,-1103.8400000000001,4954.86,5699.28
2026-01-08 18:02:04.880,1947.2,-1499.8,-1146.4,4956.6,5692.8
2026-01-08 18:02:04.900,1946.58,-1538.9199999999998,-1188.96,4958.34,5686.32
2026-01-08 18:02:04.920,1945.96,-1578.04,-1231.52,4960.08,5679.84
2026-01-08 18:02:04.940,1945.34,-1617.1599999999999,-1274.0800000000002,4961.82,5673.36
2026-01-08 18:02:04.960,1944.72,-1656.28,-1316.64,4963.56,5666.88
2026-01-08 18:02:04.980,1944.1,-1695.3999999999999,-1359.2,4965.3,5660.4
2026-01-08 18:02:05.000,1943.48,-1734.52,-1401.7600000000002,4967.04,5653.92
2026-01-08 18:02:05.020,1942.86,-1773.6399999999999,-1444.3200000000002,4968.78,5647.44
2026-01-08 18:02:05.040,1942.24,-1812.7599999999998,-1486.88,4970.52,5640.96
2026-01-08 18:02:05.060,1941.62,-1851.8799999999999,-1529.44,4972.26,5634.48
2026-01-08 18:02:05.080,1941.0,-1891.0,-1572.0,4974.0,5628.0
2026-01-08 18:02:05.100,1980.82,-1890.98,-1572.94,4974.6,5627.816326530612
2026-01-08 18:02:05.120,2020.64,-1890.96,-1573.88,4975.2,5627.632653061224
2026-01-08 18:02:05.140,2060.46,-1890.94,-1574.82,4975.8,5627.448979591837
2026-01-08 18:02:05.160,2100.28,-1890.92,-1575.76,4976.4,5627.265306122449
2026-01-08 18:02:05.180,2140.1,-1890.9,-1576.7,4977.0,5627.081632653061
2026-01-08 18:02:05.200,2179.92,-1890.88,-1577.64,4977.6,5626.897959183673
2026-01-08 18:02:05.220,2219.74,-1890.86,-1578.58,4978.2,5626.714285714285
2026-01-08 18:02:05.240,2259.56,-1890.84,-1579.52,4978.8,5626.530612244898
2026-01-08 18:02:05.260,2299.38,-1890.82,-1580.46,4979.4,5626.34693877551
2026-01-08 18:02:05.280,2339.2,-1890.8,-1581.4,4980.0,5626.163265306122
2026-01-08 18:02:05.300,2379.02,-1890.78,-1582.34,4980.6,5625.9795918367345
2026-01-08 18:02:05.320,2418.84,-1890.76,-1583.28,4981.2,5625.7959183673465
2026-01-08 18:02:05.340,2458.66,-1890.74,-1584.22,4981.8,5625.6122448979595
2026-01-08 18:02:05.360,2498.48,-1890.72,-1585.16,4982.4,5625.428571428572
2026-01-08 18:02:05.380,2538.3,-1890.7,-1586.1,4983.0,5625.244897959184
2026-01-08 18:02:05.400,2578.12,-1890.68,-1587.04,4983.6,5625.061224489796
2026-01-08 18:02:05.420,2617.94,-1890.66,-1587.98,4984.2,5624.877551020408
2026-01-08 18:02:05.440,2657.76,-1890.64,-1588.92,4984.8,5624.693877551021
2026-01-08 18:02:05.460,2697.58,-1890.62,-1589.86,4985.4,5624.510204081633
2026-01-08 18:02:05.480,2737.4,-1890.6,-1590.8,4986.0,5624.326530612245
2026-01-08 18:02:05.500,2777.2200000000003,-1890.58,-1591.74,4986.6,5624.142857142857
2026-01-08 18:02:05.520,2817.04,-1890.56,-1592.68,4987.2,5623.959183673469
2026-01-08 18:02:05.540,2856.86,-1890.54,-1593.62,4987.8,5623.775510204082
2026-01-08 18:02:05.560,2896.6800000000003,-1890.52,-1594.56,4988.4,5623.591836734694
2026-01-08 18:02:05.580,2936.5,-1890.5,-1595.5,4989.0,5623.408163265306
2026-01-08 18:02:05.600,2976.3199999999997,-1890.48,-1596.44,4989.6,5623.224489795918
2026-01-08 18:02:05.620,3016.1400000000003,-1890.46,-1597.38,4990.2,5623.040816326531
2026-01-08 18:02:05.640,3055.96,-1890.44,-1598.32,4990.8,5622.857142857143
2026-01-08 18:02:05.660,3095.7799999999997,-1890.42,-1599.26,4991.4,5622.673469387755
2026-01-08 18:02:05.680,3135.6,-1890.4,-1600.2,4992.0,5622.489795918367
2026-01-08 18:02:05.700,3175.42,-1890.38,-1601.14,4992.6,5622.306122448979
2026-01-08 18:02:05.720,3215.24,-1890.36,-1602.08,4993.2,5622.122448979592
2026-01-08 18:02:05.740,3255.06,-1890.34,-1603.02,4993.8,5621.938775510204
2026-01-08 18:02:05.760,3294.88,-1890.32,-1603.96,4994.4,5621.755102040816
2026-01-08 18:02:05.780,3334.7,-1890.3,-1604.9,4995.0,5621.571428571428
2026-01-08 18:02:05.800,3374.52,-1890.28,-1605.84,4995.6,5621.3877551020405
2026-01-08 18:02:05.820,3414.34,-1890.26,-1606.78,4996.2,5621.2040816326535
2026-01-08 18:02:05.840,3454.16,-1890.24,-1607.72,4996.8,5621.0204081632655
2026-01-08 18:02:05.860,3493.98,-1890.22,-1608.66,4997.4,5620.836734693878
2026-01-08 18:02:05.880,3533.8,-1890.2,-1609.6,4998.0,5620.65306122449
2026-01-08 18:02:05.900,3573.62,-1890.18,-1610.54,4998.6,5620.469387755102
2026-01-08 18:02:05.920,3613.44,-1890.16,-1611.48,4999.2,5620.285714285715
2026-01-08 18:02:05.940,3653.26,-1890.14,-1612.42,4999.8,5620.102040816327
2026-01-08 18:02:05.960,3693.08,-1890.12,-1613.36,5000.4,5619.918367346939
2026-01-08 18:02:05.980,3732.9,-1890.1,-1614.3,5001.0,5619.734693877551
2026-01-08 18:02:06.000,3772.7200000000003,-1890.08,-1615.24,5001.6,5619.551020408163
2026-01-08 18:02:06.020,3812.54,-1890.06,-1616.18,5002.2,5619.367346938776
2026-01-08 18:02:06.040,3852.36,-1890.04,-1617.12,5002.8,5619.183673469388
2026-01-08 18:02:06.060,3892.1800000000003,-1890.02,-1618.06,5003.4,5619.0
2026-01-08 18:02:06.080,3932.0,-1890.0,-1619.0,5004.0,5619.24
2026-01-08 18:02:06.100,3932.6938775510203,-1889.469387755102,-1619.5714285714287,5003.367346938776,5619.48
2026-01-08 18:02:06.120,3933.387755102041,-1888.938775510204,-1620.142857142857,5002.734693877551,5619.72
2026-01-08 18:02:06.140,3934.081632653061,-1888.408163265306,-1620.7142857142858,5002.102040816327,5619.96
2026-01-08 18:02:06.160,3934.7755102040815,-1887.8775510204082,-1621.2857142857142,5001.469387755102,5620.2
2026-01-08 18:02:06.180,3935.469387755102,-1887.3469387755101,-1621.857142857143,5000.836734693878,5620.44
2026-01-08 18:02:06.200,3936.1632653061224,-1886.8163265306123,-1622.4285714285713,5000.2040816326535,5620.68
2026-01-08 18:02:06.220,3936.8571428571427,-1886.2857142857142,-1623.0,4999.571428571428,5620.92
2026-01-08 18:02:06.240,3937.5510204081634,-1885.7551020408164,-1623.5714285714287,4998.938775510204,5621.16
2026-01-08 18:02:06.260,3938.2448979591836,-1885.2244897959183,-1624.142857142857,4998.306122448979,5621.4
2026-01-08 18:02:06.280,3938.938775510204,-1884.6938775510205,-1624.7142857142858,4997.673469387755,5621.64
2026-01-08 18:02:06.300,3939.6326530612246,-1884.1632653061224,-1625.2857142857142,4997.040816326531,5621.88
2026-01-08 18:02:06.320,3940.326530612245,-1883.6326530612246,-1625.857142857143,4996.408163265306,5622.12
2026-01-08 18:02:06.340,3941.0204081632655,-1883.1020408163265,-1626.4285714285713,4995.775510204082,5622.36
2026-01-08 18:02:06.360,3941.714285714286,-1882.5714285714287,-1627.0,4995.142857142857,5622.6
2026-01-08 18:02:06.380,3942.408163265306,-1882.0408163265306,-1627.5714285714287,4994.510204081633,5622.84
2026-01-08 18:02:06.400,3943.1020408163267,-1881.5102040816328,-1628.142857142857,4993.877551020408,5623.08
2026-01-08 18:02:06.420,3943.795918367347,-1880.9795918367347,-1628.7142857142858,4993.244897959184,5623.32
2026-01-08 18:02:06.440,3944.4897959183672,-1880.4489795918366,-1629.2857142857142,4992.6122448979595,5623.56
2026-01-08 18:02:06.460,3945.183673469388,-1879.9183673469388,-1629.857142857143,4991.9795918367345,5623.8
2026-01-08 18:02:06.480,3945.877551020408,-1879.3877551020407,-1630.4285714285713,4991.34693877551,5624.04
2026-01-08 18:02:06.500,3946.5714285714284,-1878.857142857143,-1631.0,4990.714285714285,5624.28
2026-01-08 18:02:06.520,3947.265306122449,-1878.3265306122448,-1631.5714285714287,4990.081632653061,5624.52
2026-01-08 18:02:06.540,3947.9591836734694,-1877.795918367347,-1632.142857142857,4989.448979591837,5624.76
2026-01-08 18:02:06.560,3948.6530612244896,-1877.265306122449,-1632.7142857142858,4988.816326530612,5625.0
2026-01-08 18:02:06.580,3949.3469387755104,-1876.734693877551,-1633.2857142857142,4988.183673469388,5625.24
2026-01-08 18:02:06.600,3950.0408163265306,-1876.204081632653,-1633.857142857143,4987.551020408163,5625.48
2026-01-08 18:02:06.620,3950.734693877551,-1875.6734693877552,-1634.4285714285713,4986.918367346939,5625.72
2026-01-08 18:02:06.640,3951.4285714285716,-1875.142857142857,-1635.0,4986.285714285715,5625.96
2026-01-08 18:02:06.660,3952.122448979592,-1874.6122448979593,-1635.5714285714287,4985.65306122449,5626.2
2026-01-08 18:02:06.680,3952.816326530612,-1874.0816326530612,-1636.142857142857,4985.0204081632655,5626.44
2026-01-08 18:02:06.700,3953.5102040816328,-1873.5510204081634,-1636.7142857142858,4984.3877551020405,5626.68
2026-01-08 18:02:06.720,3954.204081632653,-1873.0204081632653,-1637.2857142857142,4983.755102040816,5626.92
2026-01-08 18:02:06.740,3954.8979591836733,-1872.4897959183672,-1637.857142857143,4983.122448979592,5627.16
2026-01-08 18:02:06.760,3955.591836734694,-1871.9591836734694,-1638.4285714285713,4982.489795918367,5627.4
2026-01-08 18:02:06.780,3956.285714285714,-1871.4285714285713,-1639.0,4981.857142857143,5627.64
2026-01-08 18:02:06.800,3956.9795918367345,-1870.8979591836735,-1639.5714285714287,4981.224489795918,5627.88
2026-01-08 18:02:06.820,3957.673469387755,-1870.3673469387754,-1640.142857142857,4980.591836734694,5628.12
2026-01-08 18:02:06.840,3958.3673469387754,-1869.8367346938776,-1640.7142857142858,4979.959183673469,5628.36
2026-01-08 18:02:06.860,3959.061224489796,-1869.3061224489795,-1641.2857142857142,4979.326530612245,5628.6
2026-01-08 18:02:06.880,3959.7551020408164,-1868.7755102040817,-1641.857142857143,4978.693877551021,5628.84
2026-01-08 18:02:06.900,3960.4489795918366,-1868.2448979591836,-1642.4285714285713,4978.061224489796,5629.08
2026-01-08 18:02:06.920,3961.1428571428573,-1867.7142857142858,-1643.0,4977.428571428572,5629.32
2026-01-08 18:02:06.940,3961.8367346938776,-1867.1836734693877,-1643.5714285714287,4976.7959183673465,5629.56
2026-01-08 18:02:06.960,3962.530612244898,-1866.6530612244899,-1644.142857142857,4976.163265306122,5629.8
2026-01-08 18:02:06.980,3963.2244897959185,-1866.1224489795918,-1644.7142857142858,4975.530612244898,5630.04
2026-01-08 18:02:07.000,3963.918367346939,-1865.591836734694,-1645.2857142857142,4974.897959183673,5630.28
2026-01-08 18:02:07.020,3964.612244897959,-1865.061224489796,-1645.857142857143,4974.265306122449,5630.52
2026-01-08 18:02:07.040,3965.3061224489797,-1864.530612244898,-1646.4285714285713,4973.632653061224,5630.76
2026-01-08 18:02:07.060,3966.0,-1864.0,-1647.0,4973.0,5631.0
2026-01-08 18:02:07.080,3965.7884615384614,-1863.2692307692307,-1645.0,4971.865384615385,5631.653846153846
2026-01-08 18:02:07.100,3965.576923076923,-1862.5384615384614,-1643.0,4970.7307692307695,5632.307692307692
2026-01-08 18:02:07.120,3965.3653846153848,-1861.8076923076924,-1641.0,4969.596153846154,5632.961538461538
2026-01-08 18:02:07.140,3965.153846153846,-1861.076923076923,-1639.0,4968.461538461538,5633.615384615385
2026-01-08 18:02:07.160,3964.9423076923076,-1860.3461538461538,-1637.0,4967.326923076923,5634.2692307692305
2026-01-08 18:02:07.180,3964.730769230769,-1859.6153846153845,-1635.0,4966.192307692308,5634.923076923077
2026-01-08 18:02:07.200,3964.519230769231,-1858.8846153846155,-1633.0,4965.057692307692,5635.576923076923
2026-01-08 18:02:07.220,3964.3076923076924,-1858.1538461538462,-1631.0,4963.923076923077,5636.2307692307695
2026-01-08 18:02:07.240,3964.096153846154,-1857.423076923077,-1629.0,4962.788461538462,5636.884615384615
2026-01-08 18:02:07.260,3963.8846153846152,-1856.6923076923076,-1627.0,4961.653846153846,5637.538461538462
2026-01-08 18:02:07.280,3963.673076923077,-1855.9615384615386,-1625.0,4960.5192307692305,5638.192307692308
2026-01-08 18:02:07.300,3963.4615384615386,-1855.2307692307693,-1623.0,4959.384615384615,5638.846153846154
2026-01-08 18:02:07.320,3963.25,-1854.5,-1621.0,4958.25,5639.5
2026-01-08 18:02:07.340,3963.0384615384614,-1853.7692307692307,-1619.0,4957.115384615385,5640.153846153846
2026-01-08 18:02:07.360,3962.826923076923,-1853.0384615384614,-1617.0,4955.9807692307695,5640.807692307692
2026-01-08 18:02:07.380,3962.6153846153848,-1852.3076923076924,-1615.0,4954.846153846154,5641.461538461538
2026-01-08 18:02:07.400,3962.403846153846,-1851.576923076923,-1613.0,4953.711538461538,5642.115384615385
2026-01-08 18:02:07.420,3962.1923076923076,-1850.8461538461538,-1611.0,4952.576923076923,5642.7692307692305
2026-01-08 18:02:07.440,3961.980769230769,-1850.1153846153845,-1609.0,4951.442307692308,5643.423076923077
2026-01-08 18:02:07.460,3961.769230769231,-1849.3846153846155,-1607.0,4950.307692307692,5644.076923076923
2026-01-08 18:02:07.480,3961.5576923076924,-1848.6538461538462,-1605.0,4949.173076923077,5644.7307692307695
2026-01-08 18:02:07.500,3961.346153846154,-1847.923076923077,-1603.0,4948.038461538462,5645.384615384615
2026-01-08 18:02:07.520,3961.1346153846152,-1847.1923076923076,-1601.0,4946.903846153846,5646.038461538462
2026-01-08 18:02:07.540,3960.923076923077,-1846.4615384615386,-1599.0,4945.7692307692305,5646.692307692308
2026-01-08 18:02:07.560,3960.7115384615386,-1845.7307692307693,-1597.0,4944.634615384615,5647.346153846154
2026-01-08 18:02:07.580,3960.5,-1845.0,-1595.0,4943.5,5648.0
2026-01-08 18:02:07.600,3960.2884615384614,-1844.2692307692307,-1593.0,4942.365384615385,5648.653846153846
2026-01-08 18:02:07.620,3960.076923076923,-1843.5384615384614,-1591.0,4941.2307692307695,5649.307692307692
2026-01-08 18:02:07.640,3959.8653846153848,-1842.8076923076924,-1589.0,4940.096153846154,5649.961538461538
2026-01-08 18:02:07.660,3959.653846153846,-1842.076923076923,-1587.0,4938.961538461538,5650.615384615385
2026-01-08 18:02:07.680,3959.4423076923076,-1841.3461538461538,-1585.0,4937.826923076923,5651.2692307692305
2026-01-08 18:02:07.700,3959.230769230769,-1840.6153846153845,-1583.0,4936.692307692308,5651.923076923077
2026-01-08 18:02:07.720,3959.019230769231,-1839.8846153846155,-1581.0,4935.557692307692,5652.576923076923
2026-01-08 18:02:07.740,3958.8076923076924,-1839.1538461538462,-1579.0,4934.423076923077,5653.2307692307695
2026-01-08 18:02:07.760,3958.596153846154,-1838.423076923077,-1577.0,4933.288461538462,5653.884615384615
2026-01-08 18:02:07.780,3958.3846153846152,-1837.6923076923076,-1575.0,4932.153846153846,5654.538461538462
2026-01-08 18:02:07.800,3958.173076923077,-1836.9615384615386,-1573.0,4931.0192307692305,5655.192307692308
2026-01-08 18:02:07.820,3957.9615384615386,-1836.2307692307693,-1571.0,4929.884615384615,5655.846153846154
2026-01-08 18:02:07.840,3957.75,-1835.5,-1569.0,4928.75,5656.5
2026-01-08 18:02:07.860,3957.5384615384614,-1834.7692307692307,-1567.0,4927.615384615385,5657.153846153846
2026-01-08 18:02:07.880,3957.326923076923,-1834.0384615384614,-1565.0,4926.4807692307695,5657.807692307692
2026-01-08 18:02:07.900,3957.1153846153848,-1833.3076923076924,-1563.0,4925.346153846154,5658.461538461538
2026-01-08 18:02:07.920,3956.903846153846,-1832.576923076923,-1561.0,4924.211538461538,5659.115384615385
2026-01-08 18:02:07.940,3956.6923076923076,-1831.8461538461538,-1559.0,4923.076923076923,5659.7692307692305
2026-01-08 18:02:07.960,3956.480769230769,-1831.1153846153845,-1557.0,4921.942307692308,5660.423076923077
2026-01-08 18:02:07.980,3956.269230769231,-1830.3846153846155,-1555.0,4920.807692307692,5661.076923076923
2026-01-08 18:02:08.000,3956.0576923076924,-1829.6538461538462,-1553.0,4919.673076923077,5661.7307692307695
2026-01-08 18:02:08.020,3955.846153846154,-1828.923076923077,-1551.0,4918.538461538462,5662.384615384615
2026-01-08 18:02:08.040,3955.6346153846152,-1828.1923076923076,-1549.0,4917.403846153846,5663.038461538462
2026-01-08 18:02:08.060,3955.423076923077,-1827.4615384615386,-1547.0,4916.2692307692305,5663.692307692308
2026-01-08 18:02:08.080,3955.2115384615386,-1826.7307692307693,-1545.0,4915.134615384615,5664.346153846154
2026-01-08 18:02:08.100,3955.0,-1826.0,-1543.0,4914.0,5665.0
2026-01-08 18:02:08.120,3955.1632653061224,-1786.2448979591836,-1545.265306122449,4911.530612244898,5665.081632653061
2026-01-08 18:02:08.140,3955.326530612245,-1746.4897959183672,-1547.530612244898,4909.061224489796,5665.163265306122
2026-01-08 18:02:08.160,3955.4897959183672,-1706.734693877551,-1549.795918367347,4906.591836734694,5665.244897959184
2026-01-08 18:02:08.180,3955.6530612244896,-1666.9795918367347,-1552.061224489796,4904.122448979592,5665.326530612245
2026-01-08 18:02:08.200,3955.816326530612,-1627.2244897959183,-1554.3265306122448,4901.65306122449,5665.408163265306
2026-01-08 18:02:08.220,3955.9795918367345,-1587.4693877551022,-1556.591836734694,4899.183673469388,5665.489795918367
2026-01-08 18:02:08.240,3956.1428571428573,-1547.7142857142858,-1558.857142857143,4896.714285714285,5665.571428571428
2026-01-08 18:02:08.260,3956.3061224489797,-1507.9591836734694,-1561.1224489795918,4894.244897959184,5665.65306122449
2026-01-08 18:02:08.280,3956.469387755102,-1468.204081632653,-1563.3877551020407,4891.775510204082,5665.734693877551
2026-01-08 18:02:08.300,3956.6326530612246,-1428.4489795918366,-1565.6530612244899,4889.306122448979,5665.816326530612
2026-01-08 18:02:08.320,3956.795918367347,-1388.6938775510205,-1567.9183673469388,4886.836734693878,5665.897959183673
2026-01-08 18:02:08.340,3956.9591836734694,-1348.938775510204,-1570.1836734693877,4884.367346938776,5665.9795918367345
2026-01-08 18:02:08.360,3957.122448979592,-1309.1836734693877,-1572.4489795918366,4881.897959183673,5666.061224489796
2026-01-08 18:02:08.380,3957.285714285714,-1269.4285714285716,-1574.7142857142858,4879.428571428572,5666.142857142857
2026-01-08 18:02:08.400,3957.4489795918366,-1229.6734693877552,-1576.9795918367347,4876.959183673469,5666.224489795918
2026-01-08 18:02:08.420,3957.612244897959,-1189.9183673469388,-1579.2448979591836,4874.489795918367,5666.306122448979
2026-01-08 18:02:08.440,3957.7755102040815,-1150.1632653061224,-1581.5102040816328,4872.0204081632655,5666.3877551020405
2026-01-08 18:02:08.460,3957.938775510204,-1110.408163265306,-1583.7755102040817,4869.551020408163,5666.469387755102
2026-01-08 18:02:08.480,3958.1020408163267,-1070.6530612244899,-1586.0408163265306,4867.081632653061,5666.551020408163
2026-01-08 18:02:08.500,3958.265306122449,-1030.8979591836735,-1588.3061224489795,4864.6122448979595,5666.632653061224
2026-01-08 18:02:08.520,3958.4285714285716,-991.1428571428571,-1590.5714285714287,4862.142857142857,5666.714285714285
2026-01-08 18:02:08.540,3958.591836734694,-951.3877551020408,-1592.8367346938776,4859.673469387755,5666.7959183673465
2026-01-08 18:02:08.560,3958.7551020408164,-911.6326530612246,-1595.1020408163265,4857.2040816326535,5666.877551020408
2026-01-08 18:02:08.580,3958.918367346939,-871.8775510204082,-1597.3673469387754,4854.734693877551,5666.959183673469
2026-01-08 18:02:08.600,3959.081632653061,-832.1224489795918,-1599.6326530612246,4852.265306122449,5667.040816326531
2026-01-08 18:02:08.620,3959.2448979591836,-792.3673469387754,-1601.8979591836735,4849.7959183673465,5667.122448979592
2026-01-08 18:02:08.640,3959.408163265306,-752.6122448979593,-1604.1632653061224,4847.326530612245,5667.2040816326535
2026-01-08 18:02:08.660,3959.5714285714284,-712.8571428571429,-1606.4285714285713,4844.857142857143,5667.285714285715
2026-01-08 18:02:08.680,3959.734693877551,-673.1020408163265,-1608.6938775510205,4842.3877551020405,5667.367346938776
2026-01-08 18:02:08.700,3959.8979591836733,-633.3469387755104,-1610.9591836734694,4839.918367346939,5667.448979591837
2026-01-08 18:02:08.720,3960.061224489796,-593.591836734694,-1613.2244897959183,4837.448979591837,5667.530612244898
2026-01-08 18:02:08.740,3960.2244897959185,-553.8367346938776,-1615.4897959183672,4834.9795918367345,5667.6122448979595
2026-01-08 18:02:08.760,3960.387755102041,-514.0816326530612,-1617.7551020408164,4832.510204081633,5667.693877551021
2026-01-08 18:02:08.780,3960.5510204081634,-474.3265306122448,-1620.0204081632653,4830.040816326531,5667.775510204082
2026-01-08 18:02:08.800,3960.714285714286,-434.57142857142867,-1622.2857142857142,4827.571428571428,5667.857142857143
2026-01-08 18:02:08.820,3960.877551020408,-394.8163265306123,-1624.5510204081634,4825.102040816327,5667.938775510204
2026-01-08 18:02:08.840,3961.0408163265306,-355.0612244897959,-1626.8163265306123,4822.632653061224,5668.0204081632655
2026-01-08 18:02:08.860,3961.204081632653,-315.30612244897975,-1629.0816326530612,4820.163265306122,5668.102040816327
2026-01-08 18:02:08.880,3961.3673469387754,-275.55102040816337,-1631.3469387755101,4817.693877551021,5668.183673469388
2026-01-08 18:02:08.900,3961.530612244898,-235.79591836734699,-1633.6122448979593,4815.224489795918,5668.265306122449
2026-01-08 18:02:08.920,3961.6938775510203,-196.0408163265306,-1635.8775510204082,4812.755102040816,5668.34693877551
2026-01-08 18:02:08.940,3961.8571428571427,-156.28571428571422,-1638.142857142857,4810.285714285715,5668.428571428572
2026-01-08 18:02:08.960,3962.0204081632655,-116.53061224489807,-1640.408163265306,4807.816326530612,5668.510204081633
2026-01-08 18:02:08.980,3962.183673469388,-76.77551020408168,-1642.6734693877552,4805.34693877551,5668.591836734694
2026-01-08 18:02:09.000,3962.3469387755104,-37.0204081632653,-1644.938775510204,4802.877551020408,5668.673469387755
2026-01-08 18:02:09.020,3962.5102040816328,2.7346938775508534,-1647.204081632653,4800.408163265306,5668.755102040816
2026-01-08 18:02:09.040,3962.673469387755,42.489795918367236,-1649.4693877551022,4797.938775510204,5668.836734693878
2026-01-08 18:02:09.060,3962.8367346938776,82.24489795918362,-1651.734693877551,4795.469387755102,5668.918367346939
2026-01-08 18:02:09.080,3963.0,122.0,-1654.0,4793.0,5669.0
2026-01-08 18:02:09.100,3962.18,81.2,-1651.68,4796.122448979592,5669.489795918367
2026-01-08 18:02:09.120,3961.36,40.400000000000006,-1649.36,4799.244897959184,5669.9795918367345
2026-01-08 18:02:09.140,3960.54,-0.3999999999999915,-1647.04,4802.367346938776,5670.469387755102
2026-01-08 18:02:09.160,3959.72,-41.19999999999999,-1644.72,4805.489795918367,5670.959183673469
2026-01-08 18:02:09.180,3958.9,-82.0,-1642.4,4808.6122448979595,5671.448979591837
2026-01-08 18:02:09.200,3958.08,-122.79999999999998,-1640.08,4811.734693877551,5671.938775510204
2026-01-08 18:02:09.220,3957.26,-163.59999999999997,-1637.76,4814.857142857143,5672.428571428572
2026-01-08 18:02:09.240,3956.44,-204.39999999999998,-1635.44,4817.9795918367345,5672.918367346939
2026-01-08 18:02:09.260,3955.62,-245.2,-1633.12,4821.102040816327,5673.408163265306
2026-01-08 18:02:09.280,3954.8,-286.0,-1630.8,4824.224489795918,5673.897959183673
2026-01-08 18:02:09.300,3953.98,-326.79999999999995,-1628.48,4827.34693877551,5674.3877551020405
2026-01-08 18:02:09.320,3953.16,-367.59999999999997,-1626.16,4830.469387755102,5674.877551020408
2026-01-08 18:02:09.340,3952.34,-408.4,-1623.84,4833.591836734694,5675.367346938776
2026-01-08 18:02:09.360,3951.52,-449.19999999999993,-1621.52,4836.714285714285,5675.857142857143
2026-01-08 18:02:09.380,3950.7,-490.0,-1619.2,4839.836734693878,5676.34693877551
2026-01-08 18:02:09.400,3949.88,-530.8,-1616.88,4842.959183673469,5676.836734693878
2026-01-08 18:02:09.420,3949.06,-571.5999999999999,-1614.56,4846.081632653061,5677.326530612245
2026-01-08 18:02:09.440,3948.24,-612.4,-1612.24,4849.2040816326535,5677.816326530612
2026-01-08 18:02:09.460,3947.42,-653.1999999999999,-1609.92,4852.326530612245,5678.306122448979
2026-01-08 18:02:09.480,3946.6,-694.0,-1607.6,4855.448979591837,5678.7959183673465
2026-01-08 18:02:09.500,3945.78,-734.8,-1605.28,4858.571428571428,5679.285714285715
2026-01-08 18:02:09.520,3944.96,-775.5999999999999,-1602.96,4861.693877551021,5679.775510204082
2026-01-08 18:02:09.540,3944.14,-816.4,-1600.64,4864.816326530612,5680.265306122449
2026-01-08 18:02:09.560,3943.32,-857.1999999999999,-1598.32,4867.938775510204,5680.755102040816
2026-01-08 18:02:09.580,3942.5,-897.9999999999999,-1596.0,4871.061224489796,5681.244897959184
2026-01-08 18:02:09.600,3941.68,-938.8,-1593.68,4874.183673469388,5681.734693877551
2026-01-08 18:02:09.620,3940.86,-979.5999999999999,-1591.36,4877.306122448979,5682.224489795918
2026-01-08 18:02:09.640,3940.04,-1020.3999999999999,-1589.04,4880.428571428572,5682.714285714285
2026-01-08 18:02:09.660,3939.22,-1061.1999999999998,-1586.72,4883.551020408163,5683.2040816326535
2026-01-08 18:02:09.680,3938.4,-1102.0,-1584.4,4886.673469387755,5683.693877551021
2026-01-08 18:02:09.700,3937.58,-1142.8,-1582.08,4889.7959183673465,5684.183673469388
2026-01-08 18:02:09.720,3936.76,-1183.6,-1579.76,4892.918367346939,5684.673469387755
2026-01-08 18:02:09.740,3935.94,-1224.3999999999999,-1577.44,4896.040816326531,5685.163265306122
2026-01-08 18:02:09.760,3935.12,-1265.1999999999998,-1575.12,4899.163265306122,5685.65306122449
2026-01-08 18:02:09.780,3934.3,-1306.0,-1572.8,4902.285714285715,5686.142857142857
2026-01-08 18:02:09.800,3933.48,-1346.8,-1570.48,4905.408163265306,5686.632653061224
2026-01-08 18:02:09.820,3932.66,-1387.6,-1568.16,4908.530612244898,5687.122448979592
2026-01-08 18:02:09.840,3931.84,-1428.3999999999999,-1565.84,4911.65306122449,5687.6122448979595
2026-01-08 18:02:09.860,3931.02,-1469.1999999999998,-1563.52,4914.775510204082,5688.102040816327
2026-01-08 18:02:09.880,3930.2,-1510.0,-1561.2,4917.897959183673,5688.591836734694
2026-01-08 18:02:09.900,3929.38,-1550.8,-1558.88,4921.0204081632655,5689.081632653061
2026-01-08 18:02:09.920,3928.56,-1591.6,-1556.56,4924.142857142857,5689.571428571428
2026-01-08 18:02:09.940,3927.74,-1632.3999999999999,-1554.24,4927.265306122449,5690.061224489796
2026-01-08 18:02:09.960,3926.92,-1673.1999999999998,-1551.92,4930.3877551020405,5690.551020408163
2026-01-08 18:02:09.980,3926.1,-1713.9999999999998,-1549.6,4933.510204081633,5691.040816326531
2026-01-08 18:02:10.000,3925.28,-1754.8,-1547.28,4936.632653061224,5691.530612244898
2026-01-08 18:02:10.020,3924.46,-1795.6,-1544.96,4939.755102040816,5692.0204081632655
2026-01-08 18:02:10.040,3923.64,-1836.3999999999999,-1542.64,4942.877551020408,5692.510204081633
2026-01-08 18:02:10.060,3922.82,-1877.1999999999998,-1540.32,4946.0,5693.0
2026-01-08 18:02:10.080,3922.0,-1918.0,-1538.0,4945.22,5692.92
2026-01-08 18:02:10.100,3881.530612244898,-1877.5510204081634,-1539.142857142857,4944.44,5692.84
2026-01-08 18:02:10.120,3841.061224489796,-1837.1020408163265,-1540.2857142857142,4943.66,5692.76
2026-01-08 18:02:10.140,3800.591836734694,-1796.6530612244899,-1541.4285714285713,4942.88,5692.68
2026-01-08 18:02:10.160,3760.122448979592,-1756.204081632653,-1542.5714285714287,4942.1,5692.6
2026-01-08 18:02:10.180,3719.6530612244896,-1715.7551020408164,-1543.7142857142858,4941.32,5692.52
2026-01-08 18:02:10.200,3679.183673469388,-1675.3061224489795,-1544.857142857143,4940.54,5692.44
2026-01-08 18:02:10.220,3638.714285714286,-1634.857142857143,-1546.0,4939.76,5692.36
2026-01-08 18:02:10.240,3598.2448979591836,-1594.408163265306,-1547.142857142857,4938.98,5692.28
2026-01-08 18:02:10.260,3557.7755102040815,-1553.9591836734694,-1548.2857142857142,4938.2,5692.2
2026-01-08 18:02:10.280,3517.3061224489797,-1513.5102040816328,-1549.4285714285713,4937.42,5692.12
2026-01-08 18:02:10.300,3476.8367346938776,-1473.061224489796,-1550.5714285714287,4936.64,5692.04
2026-01-08 18:02:10.320,3436.3673469387754,-1432.6122448979593,-1551.7142857142858,4935.86,5691.96
2026-01-08 18:02:10.340,3395.8979591836733,-1392.1632653061224,-1552.857142857143,4935.08,5691.88
2026-01-08 18:02:10.360,3355.4285714285716,-1351.7142857142858,-1554.0,4934.3,5691.8
2026-01-08 18:02:10.380,3314.9591836734694,-1311.2653061224491,-1555.142857142857,4933.52,5691.72
2026-01-08 18:02:10.400,3274.4897959183672,-1270.8163265306123,-1556.2857142857142,4932.74,5691.64
2026-01-08 18:02:10.420,3234.0204081632655,-1230.3673469387754,-1557.4285714285713,4931.96,5691.56
2026-01-08 18:02:10.440,3193.5510204081634,-1189.9183673469388,-1558.5714285714287,4931.18,5691.48
2026-01-08 18:02:10.460,3153.081632653061,-1149.4693877551022,-1559.7142857142858,4930.4,5691.4
2026-01-08 18:02:10.480,3112.612244897959,-1109.0204081632653,-1560.857142857143,4929.62,5691.32
2026-01-08 18:02:10.500,3072.142857142857,-1068.5714285714287,-1562.0,4928.84,5691.24
2026-01-08 18:02:10.520,3031.673469387755,-1028.1224489795918,-1563.142857142857,4928.06,5691.16
2026-01-08 18:02:10.540,2991.204081632653,-987.6734693877552,-1564.2857142857142,4927.28,5691.08
2026-01-08 18:02:10.560,2950.734693877551,-947.2244897959184,-1565.4285714285713,4926.5,5691.0
2026-01-08 18:02:10.580,2910.265306122449,-906.7755102040817,-1566.5714285714287,4925.72,5690.92
2026-01-08 18:02:10.600,2869.795918367347,-866.326530612245,-1567.7142857142858,4924.94,5690.84
2026-01-08 18:02:10.620,2829.326530612245,-825.8775510204082,-1568.857142857143,4924.16,5690.76
2026-01-08 18:02:10.640,2788.857142857143,-785.4285714285716,-1570.0,4923.38,5690.68
2026-01-08 18:02:10.660,2748.3877551020405,-744.9795918367347,-1571.142857142857,4922.6,5690.6
2026-01-08 18:02:10.680,2707.918367346939,-704.5306122448981,-1572.2857142857142,4921.82,5690.52
2026-01-08 18:02:10.700,2667.4489795918366,-664.0816326530612,-1573.4285714285713,4921.04,5690.44
2026-01-08 18:02:10.720,2626.9795918367345,-623.6326530612246,-1574.5714285714287,4920.26,5690.36
2026-01-08 18:02:10.740,2586.5102040816328,-583.1836734693879,-1575.7142857142858,4919.48,5690.28
2026-01-08 18:02:10.760,2546.0408163265306,-542.7346938775511,-1576.857142857143,4918.7,5690.2
2026-01-08 18:02:10.780,2505.5714285714284,-502.28571428571445,-1578.0,4917.92,5690.12
2026-01-08 18:02:10.800,2465.1020408163267,-461.8367346938776,-1579.142857142857,4917.14,5690.04
2026-01-08 18:02:10.820,2424.6326530612246,-421.38775510204096,-1580.2857142857142,4916.36,5689.96
2026-01-08 18:02:10.840,2384.1632653061224,-380.9387755102041,-1581.4285714285713,4915.58,5689.88
2026-01-08 18:02:10.860,2343.6938775510207,-340.48979591836746,-1582.5714285714287,4914.8,5689.8
2026-01-08 18:02:10.880,2303.224489795918,-300.0408163265306,-1583.7142857142858,4914.02,5689.72
2026-01-08 18:02:10.900,2262.7551020408164,-259.59183673469397,-1584.857142857143,4913.24,5689.64
2026-01-08 18:02:10.920,2222.285714285714,-219.14285714285734,-1586.0,4912.46,5689.56
2026-01-08 18:02:10.940,2181.816326530612,-178.69387755102048,-1587.142857142857,4911.68,5689.48
2026-01-08 18:02:10.960,2141.3469387755104,-138.24489795918385,-1588.2857142857142,4910.9,5689.4
2026-01-08 18:02:10.980,2100.877551020408,-97.79591836734699,-1589.4285714285713,4910.12,5689.32
2026-01-08 18:02:11.000,2060.408163265306,-57.34693877551035,-1590.5714285714287,4909.34,5689.24
2026-01-08 18:02:11.020,2019.938775510204,-16.897959183673493,-1591.7142857142858,4908.56,5689.16
2026-01-08 18:02:11.040,1979.4693877551022,23.55102040816314,-1592.857142857143,4907.78,5689.08
2026-01-08 18:02:11.060,1939.0,64.0,-1594.0,4907.0,5689.0
2026-01-08 18:02:11.080,1938.8076923076924,65.09615384615384,-1593.576923076923,4908.038461538462,5688.673076923077
2026-01-08 18:02:11.100,1938.6153846153845,66.1923076923077,-1593.1538461538462,4909.076923076923,5688.346153846154
2026-01-08 18:02:11.120,1938.423076923077,67.28846153846153,-1592.7307692307693,4910.115384615385,5688.0192307692305
2026-01-08 18:02:11.140,1938.2307692307693,68.38461538461539,-1592.3076923076924,4911.153846153846,5687.692307692308
2026-01-08 18:02:11.160,1938.0384615384614,69.48076923076923,-1591.8846153846155,4912.192307692308,5687.365384615385
2026-01-08 18:02:11.180,1937.8461538461538,70.57692307692308,-1591.4615384615386,4913.2307692307695,5687.038461538462
2026-01-08 18:02:11.200,1937.6538461538462,71.67307692307692,-1591.0384615384614,4914.2692307692305,5686.711538461538
2026-01-08 18:02:11.220,1937.4615384615386,72.76923076923077,-1590.6153846153845,4915.307692307692,5686.384615384615
2026-01-08 18:02:11.240,1937.2692307692307,73.86538461538461,-1590.1923076923076,4916.346153846154,5686.057692307692
2026-01-08 18:02:11.260,1937.076923076923,74.96153846153847,-1589.7692307692307,4917.384615384615,5685.7307692307695
2026-01-08 18:02:11.280,1936.8846153846155,76.0576923076923,-1589.3461538461538,4918.423076923077,5685.403846153846
2026-01-08 18:02:11.300,1936.6923076923076,77.15384615384616,-1588.923076923077,4919.461538461538,5685.076923076923
2026-01-08 18:02:11.320,1936.5,78.25,-1588.5,4920.5,5684.75
2026-01-08 18:02:11.340,1936.3076923076924,79.34615384615384,-1588.076923076923,4921.538461538462,5684.423076923077
2026-01-08 18:02:11.360,1936.1153846153845,80.4423076923077,-1587.6538461538462,4922.576923076923,5684.096153846154
2026-01-08 18:02:11.380,1935.923076923077,81.53846153846155,-1587.2307692307693,4923.615384615385,5683.7692307692305
2026-01-08 18:02:11.400,1935.7307692307693,82.63461538461539,-1586.8076923076924,4924.653846153846,5683.442307692308
2026-01-08 18:02:11.420,1935.5384615384614,83.73076923076923,-1586.3846153846155,4925.692307692308,5683.115384615385
2026-01-08 18:02:11.440,1935.3461538461538,84.82692307692308,-1585.9615384615386,4926.7307692307695,5682.788461538462
2026-01-08 18:02:11.460,1935.1538461538462,85.92307692307693,-1585.5384615384614,4927.7692307692305,5682.461538461538
2026-01-08 18:02:11.480,1934.9615384615386,87.01923076923077,-1585.1153846153845,4928.807692307692,5682.134615384615
2026-01-08 18:02:11.500,1934.7692307692307,88.11538461538461,-1584.6923076923076,4929.846153846154,5681.807692307692
2026-01-08 18:02:11.520,1934.576923076923,89.21153846153847,-1584.2692307692307,4930.884615384615,5681.4807692307695
2026-01-08 18:02:11.540,1934.3846153846155,90.3076923076923,-1583.8461538461538,4931.923076923077,5681.153846153846
2026-01-08 18:02:11.560,1934.1923076923076,91.40384615384616,-1583.423076923077,4932.961538461538,5680.826923076923
2026-01-08 18:02:11.580,1934.0,92.5,-1583.0,4934.0,5680.5
2026-01-08 18:02:11.600,1933.8076923076924,93.59615384615385,-1582.576923076923,4935.038461538462,5680.173076923077
2026-01-08 18:02:11.620,1933.6153846153845,94.6923076923077,-1582.1538461538462,4936.076923076923,5679.846153846154
2026-01-08 18:02:11.640,1933.423076923077,95.78846153846155,-1581.7307692307693,4937.115384615385,5679.5192307692305
2026-01-08 18:02:11.660,1933.2307692307693,96.88461538461539,-1581.3076923076924,4938.153846153846,5679.192307692308
2026-01-08 18:02:11.680,1933.0384615384614,97.98076923076923,-1580.8846153846155,4939.192307692308,5678.865384615385
2026-01-08 18:02:11.700,1932.8461538461538,99.07692307692308,-1580.4615384615386,4940.2307692307695,5678.538461538462
2026-01-08 18:02:11.720,1932.6538461538462,100.17307692307693,-1580.0384615384614,4941.2692307692305,5678.211538461538
2026-01-08 18:02:11.740,1932.4615384615386,101.26923076923077,-1579.6153846153845,4942.307692307692,5677.884615384615
2026-01-08 18:02:11.760,1932.2692307692307,102.36538461538461,-1579.1923076923076,4943.346153846154,5677.557692307692
2026-01-08 18:02:11.780,1932.076923076923,103.46153846153847,-1578.7692307692307,4944.384615384615,5677.2307692307695
2026-01-08 18:02:11.800,1931.8846153846155,104.55769230769232,-1578.3461538461538,4945.423076923077,5676.903846153846
2026-01-08 18:02:11.820,1931.6923076923076,105.65384615384616,-1577.923076923077,4946.461538461538,5676.576923076923
2026-01-08 18:02:11.840,1931.5,106.75,-1577.5,4947.5,5676.25
2026-01-08 18:02:11.860,1931.3076923076924,107.84615384615385,-1577.076923076923,4948.538461538462,5675.923076923077
2026-01-08 18:02:11.880,1931.1153846153845,108.9423076923077,-1576.6538461538462,4949.576923076923,5675.596153846154
2026-01-08 18:02:11.900,1930.923076923077,110.03846153846155,-1576.2307692307693,4950.615384615385,5675.2692307692305
2026-01-08 18:02:11.920,1930.7307692307693,111.13461538461539,-1575.8076923076924,4951.653846153846,5674.942307692308
2026-01-08 18:02:11.940,1930.5384615384614,112.23076923076923,-1575.3846153846155,4952.692307692308,5674.615384615385
2026-01-08 18:02:11.960,1930.3461538461538,113.32692307692308,-1574.9615384615386,4953.7307692307695,5674.288461538462
2026-01-08 18:02:11.980,1930.1538461538462,114.42307692307693,-1574.5384615384614,4954.7692307692305,5673.961538461538
2026-01-08 18:02:12.000,1929.9615384615386,115.51923076923077,-1574.1153846153845,4955.807692307692,5673.634615384615
2026-01-08 18:02:12.020,1929.7692307692307,116.61538461538461,-1573.6923076923076,4956.846153846154,5673.307692307692
2026-01-08 18:02:12.040,1929.576923076923,117.71153846153847,-1573.2692307692307,4957.884615384615,5672.9807692307695
2026-01-08 18:02:12.060,1929.3846153846155,118.80769230769232,-1572.8461538461538,4958.923076923077,5672.653846153846
2026-01-08 18:02:12.080,1929.1923076923076,119.90384615384616,-1572.423076923077,4959.961538461538,5672.326923076923
2026-01-08 18:02:12.100,1929.0,121.0,-1572.0,4961.0,5672.0
2026-01-08 18:02:12.120,1968.6470588235295,83.31372549019608,-1534.3921568627452,4961.137254901961,5672.86
2026-01-08 18:02:12.140,2008.2941176470588,45.627450980392155,-1496.7843137254902,4961.274509803921,5673.72
2026-01-08 18:02:12.160,2047.9411764705883,7.941176470588232,-1459.1764705882354,4961.411764705882,5674.58
2026-01-08 18:02:12.180,2087.5882352941176,-29.74509803921569,-1421.5686274509803,4961.549019607844,5675.44
2026-01-08 18:02:12.200,2127.235294117647,-67.43137254901961,-1383.9607843137255,4961.686274509804,5676.3
2026-01-08 18:02:12.220,2166.8823529411766,-105.11764705882354,-1346.3529411764705,4961.823529411765,5677.16
2026-01-08 18:02:12.240,2206.529411764706,-142.80392156862746,-1308.7450980392157,4961.9607843137255,5678.02
2026-01-08 18:02:12.260,2246.176470588235,-180.49019607843138,-1271.1372549019607,4962.098039215686,5678.88
2026-01-08 18:02:12.280,2285.823529411765,-218.1764705882353,-1233.5294117647059,4962.235294117647,5679.74
2026-01-08 18:02:12.300,2325.470588235294,-255.86274509803923,-1195.921568627451,4962.3725490196075,5680.6
2026-01-08 18:02:12.320,2365.1176470588234,-293.54901960784315,-1158.313725490196,4962.509803921569,5681.46
2026-01-08 18:02:12.340,2404.764705882353,-331.2352941176471,-1120.7058823529412,4962.64705882353,5682.32
2026-01-08 18:02:12.360,2444.4117647058824,-368.921568627451,-1083.0980392156862,4962.78431372549,5683.18
2026-01-08 18:02:12.380,2484.0588235294117,-406.6078431372549,-1045.4901960784314,4962.921568627451,5684.04
2026-01-08 18:02:12.400,2523.7058823529414,-444.2941176470588,-1007.8823529411765,4963.058823529412,5684.9
2026-01-08 18:02:12.420,2563.3529411764707,-481.98039215686276,-970.2745098039215,4963.196078431372,5685.76
2026-01-08 18:02:12.440,2603.0,-519.6666666666667,-932.6666666666666,4963.333333333333,5686.62
2026-01-08 18:02:12.460,2642.6470588235293,-557.3529411764706,-895.0588235294117,4963.470588235294,5687.48
2026-01-08 18:02:12.480,2682.294117647059,-595.0392156862745,-857.4509803921568,4963.607843137255,5688.34
2026-01-08 18:02:12.500,2721.9411764705883,-632.7254901960785,-819.8431372549019,4963.745098039216,5689.2
2026-01-08 18:02:12.520,2761.5882352941176,-670.4117647058824,-782.2352941176471,4963.882352941177,5690.06
2026-01-08 18:02:12.540,2801.235294117647,-708.0980392156863,-744.6274509803922,4964.019607843137,5690.92
2026-01-08 18:02:12.560,2840.8823529411766,-745.7843137254902,-707.0196078431372,4964.156862745098,5691.78
2026-01-08 18:02:12.580,2880.529411764706,-783.4705882352941,-669.4117647058823,4964.294117647059,5692.64
2026-01-08 18:02:12.600,2920.176470588235,-821.1568627450981,-631.8039215686274,4964.431372549019,5693.5
2026-01-08 18:02:12.620,2959.823529411765,-858.843137254902,-594.1960784313725,4964.568627450981,5694.36
2026-01-08 18:02:12.640,2999.470588235294,-896.5294117647059,-556.5882352941176,4964.705882352941,5695.22
2026-01-08 18:02:12.660,3039.1176470588234,-934.2156862745098,-518.9803921568628,4964.843137254902,5696.08
2026-01-08 18:02:12.680,3078.764705882353,-971.9019607843138,-481.37254901960773,4964.980392156863,5696.94
2026-01-08 18:02:12.700,3118.4117647058824,-1009.5882352941176,-443.7647058823529,4965.117647058823,5697.8
2026-01-08 18:02:12.720,3158.0588235294117,-1047.2745098039215,-406.1568627450979,4965.254901960784,5698.66
2026-01-08 18:02:12.740,3197.7058823529414,-1084.9607843137255,-368.5490196078431,4965.392156862745,5699.52
2026-01-08 18:02:12.760,3237.3529411764707,-1122.6470588235295,-330.9411764705883,4965.529411764706,5700.38
2026-01-08 18:02:12.780,3277.0,-1160.3333333333335,-293.33333333333326,4965.666666666667,5701.24
2026-01-08 18:02:12.800,3316.6470588235297,-1198.0196078431372,-255.72549019607845,4965.803921568628,5702.1
2026-01-08 18:02:12.820,3356.2941176470586,-1235.7058823529412,-218.11764705882342,4965.941176470588,5702.96
2026-01-08 18:02:12.840,3395.9411764705883,-1273.3921568627452,-180.50980392156862,4966.078431372549,5703.82
2026-01-08 18:02:12.860,3435.588235294118,-1311.078431372549,-142.9019607843136,4966.21568627451,5704.68
2026-01-08 18:02:12.880,3475.235294117647,-1348.764705882353,-105.29411764705878,4966.35294117647,5705.54
2026-01-08 18:02:12.900,3514.8823529411766,-1386.450980392157,-67.68627450980375,4966.490196078431,5706.4
2026-01-08 18:02:12.920,3554.529411764706,-1424.137254901961,-30.07843137254895,4966.6274509803925,5707.26
2026-01-08 18:02:12.940,3594.176470588235,-1461.8235294117649,7.529411764705856,4966.764705882353,5708.12
2026-01-08 18:02:12.960,3633.823529411765,-1499.5098039215686,45.13725490196089,4966.901960784314,5708.98
2026-01-08 18:02:12.980,3673.470588235294,-1537.1960784313726,82.74509803921569,4967.0392156862745,5709.84
2026-01-08 18:02:13.000,3713.1176470588234,-1574.8823529411766,120.35294117647072,4967.176470588235,5710.7
2026-01-08 18:02:13.020,3752.764705882353,-1612.5686274509803,157.96078431372553,4967.313725490196,5711.56
2026-01-08 18:02:13.040,3792.4117647058824,-1650.2549019607843,195.56862745098056,4967.450980392156,5712.42
2026-01-08 18:02:13.060,3832.0588235294117,-1687.9411764705883,233.17647058823536,4967.588235294118,5713.28
2026-01-08 18:02:13.080,3871.7058823529414,-1725.6274509803923,270.78431372549016,4967.725490196079,5714.14
2026-01-08 18:02:13.100,3911.3529411764707,-1763.3137254901962,308.3921568627452,4967.862745098039,5715.0
2026-01-08 18:02:13.120,3951.0,-1801.0,346.0,4968.0,5714.083333333333
2026-01-08 18:02:13.140,3907.872340425532,-1760.7446808510638,305.2127659574468,4968.95744680851,5713.166666666667
2026-01-08 18:02:13.160,3864.744680851064,-1720.4893617021276,264.4255319148936,4969.914893617021,5712.25
2026-01-08 18:02:13.180,3821.6170212765956,-1680.2340425531916,223.63829787234042,4970.872340425532,5711.333333333333
2026-01-08 18:02:13.200,3778.4893617021276,-1639.9787234042553,182.85106382978722,4971.829787234043,5710.416666666667
2026-01-08 18:02:13.220,3735.3617021276596,-1599.723404255319,142.06382978723403,4972.787234042553,5709.5
2026-01-08 18:02:13.240,3692.2340425531916,-1559.468085106383,101.27659574468083,4973.744680851064,5708.583333333333
2026-01-08 18:02:13.260,3649.1063829787236,-1519.2127659574467,60.48936170212767,4974.702127659574,5707.666666666667
2026-01-08 18:02:13.280,3605.978723404255,-1478.9574468085107,19.702127659574444,4975.659574468085,5706.75
2026-01-08 18:02:13.300,3562.851063829787,-1438.7021276595744,-21.08510638297878,4976.617021276596,5705.833333333333
2026-01-08 18:02:13.320,3519.723404255319,-1398.4468085106382,-61.872340425531945,4977.574468085107,5704.916666666667
2026-01-08 18:02:13.340,3476.595744680851,-1358.1914893617022,-102.65957446808511,4978.531914893617,5704.0
2026-01-08 18:02:13.360,3433.468085106383,-1317.9361702127658,-143.44680851063833,4979.489361702128,5703.083333333333
2026-01-08 18:02:13.380,3390.3404255319147,-1277.6808510638298,-184.23404255319156,4980.446808510638,5702.166666666667
2026-01-08 18:02:13.400,3347.212765957447,-1237.4255319148936,-225.02127659574467,4981.404255319149,5701.25
2026-01-08 18:02:13.420,3304.0851063829787,-1197.1702127659573,-265.8085106382979,4982.36170212766,5700.333333333333
2026-01-08 18:02:13.440,3260.9574468085107,-1156.9148936170213,-306.5957446808511,4983.31914893617,5699.416666666667
2026-01-08 18:02:13.460,3217.8297872340427,-1116.6595744680849,-347.38297872340434,4984.276595744681,5698.5
2026-01-08 18:02:13.480,3174.702127659574,-1076.404255319149,-388.17021276595756,4985.234042553191,5697.583333333333
2026-01-08 18:02:13.500,3131.5744680851067,-1036.1489361702127,-428.95744680851067,4986.191489361702,5696.666666666667
2026-01-08 18:02:13.520,3088.446808510638,-995.8936170212766,-469.7446808510639,4987.148936170212,5695.75
2026-01-08 18:02:13.540,3045.31914893617,-955.6382978723403,-510.5319148936171,4988.106382978724,5694.833333333333
2026-01-08 18:02:13.560,3002.191489361702,-915.3829787234042,-551.3191489361702,4989.063829787234,5693.916666666667
2026-01-08 18:02:13.580,2959.063829787234,-875.127659574468,-592.1063829787234,4990.021276595745,5693.0
2026-01-08 18:02:13.600,2915.9361702127662,-834.8723404255318,-632.8936170212767,4990.978723404255,5692.083333333333
2026-01-08 18:02:13.620,2872.808510638298,-794.6170212765957,-673.6808510638299,4991.936170212766,5691.166666666667
2026-01-08 18:02:13.640,2829.68085106383,-754.3617021276596,-714.4680851063831,4992.893617021276,5690.25
2026-01-08 18:02:13.660,2786.553191489362,-714.1063829787233,-755.2553191489362,4993.851063829788,5689.333333333333
2026-01-08 18:02:13.680,2743.425531914894,-673.8510638297871,-796.0425531914893,4994.808510638298,5688.416666666667
2026-01-08 18:02:13.700,2700.297872340426,-633.5957446808509,-836.8297872340427,4995.765957446809,5687.5
2026-01-08 18:02:13.720,2657.1702127659573,-593.3404255319149,-877.6170212765958,4996.723404255319,5686.583333333333
2026-01-08 18:02:13.740,2614.0425531914893,-553.0851063829787,-918.4042553191491,4997.68085106383,5685.666666666667
2026-01-08 18:02:13.760,2570.9148936170213,-512.8297872340424,-959.1914893617022,4998.63829787234,5684.75
2026-01-08 18:02:13.780,2527.7872340425533,-472.5744680851062,-999.9787234042553,4999.595744680851,5683.833333333333
2026-01-08 18:02:13.800,2484.6595744680853,-432.31914893617,-1040.7659574468087,5000.553191489362,5682.916666666667
2026-01-08 18:02:13.820,2441.531914893617,-392.063829787234,-1081.5531914893618,5001.510638297872,5682.0
2026-01-08 18:02:13.840,2398.404255319149,-351.8085106382978,-1122.3404255319151,5002.468085106383,5681.083333333333
2026-01-08 18:02:13.860,2355.276595744681,-311.55319148936155,-1163.1276595744682,5003.425531914893,5680.166666666667
2026-01-08 18:02:13.880,2312.148936170213,-271.29787234042533,-1203.9148936170213,5004.382978723404,5679.25
2026-01-08 18:02:13.900,2269.021276595745,-231.04255319148933,-1244.7021276595747,5005.340425531915,5678.333333333333
2026-01-08 18:02:13.920,2225.8936170212764,-190.7872340425531,-1285.4893617021278,5006.297872340426,5677.416666666667
2026-01-08 18:02:13.940,2182.765957446809,-150.5319148936169,-1326.276595744681,5007.255319148936,5676.5
2026-01-08 18:02:13.960,2139.6382978723404,-110.27659574468066,-1367.0638297872342,5008.212765957447,5675.583333333333
2026-01-08 18:02:13.980,2096.5106382978724,-70.02127659574444,-1407.8510638297873,5009.170212765957,5674.666666666667
2026-01-08 18:02:14.000,2053.3829787234044,-29.765957446808443,-1448.6382978723404,5010.127659574468,5673.75
2026-01-08 18:02:14.020,2010.2553191489362,10.48936170212778,-1489.4255319148938,5011.085106382979,5672.833333333333
2026-01-08 18:02:14.040,1967.1276595744682,50.744680851064004,-1530.212765957447,5012.04255319149,5671.916666666667
2026-01-08 18:02:14.060,1924.0,91.0,-1571.0,5013.0,5671.0
2026-01-08 18:02:14.080,1961.111111111111,54.05555555555556,-1535.1666666666667,5012.166666666667,5671.407407407408
2026-01-08 18:02:14.100,1998.2222222222222,17.111111111111114,-1499.3333333333333,5011.333333333333,5671.814814814815
2026-01-08 18:02:14.120,2035.3333333333333,-19.83333333333333,-1463.5,5010.5,5672.222222222223
2026-01-08 18:02:14.140,2072.4444444444443,-56.77777777777777,-1427.6666666666667,5009.666666666667,5672.62962962963
2026-01-08 18:02:14.160,2109.5555555555557,-93.72222222222223,-1391.8333333333333,5008.833333333333,5673.037037037037
2026-01-08 18:02:14.180,2146.6666666666665,-130.66666666666666,-1356.0,5008.0,5673.444444444444
2026-01-08 18:02:14.200,2183.777777777778,-167.6111111111111,-1320.1666666666667,5007.166666666667,5673.851851851852
2026-01-08 18:02:14.220,2220.8888888888887,-204.55555555555554,-1284.3333333333333,5006.333333333333,5674.259259259259
2026-01-08 18:02:14.240,2258.0,-241.5,-1248.5,5005.5,5674.666666666667
2026-01-08 18:02:14.260,2295.1111111111113,-278.44444444444446,-1212.6666666666665,5004.666666666667,5675.074074074074
2026-01-08 18:02:14.280,2332.222222222222,-315.38888888888886,-1176.8333333333333,5003.833333333333,5675.481481481482
2026-01-08 18:02:14.300,2369.3333333333335,-352.3333333333333,-1141.0,5003.0,5675.888888888889
2026-01-08 18:02:14.320,2406.4444444444443,-389.27777777777777,-1105.1666666666665,5002.166666666667,5676.2962962962965
2026-01-08 18:02:14.340,2443.5555555555557,-426.2222222222222,-1069.3333333333333,5001.333333333333,5676.7037037037035
2026-01-08 18:02:14.360,2480.666666666667,-463.16666666666663,-1033.5,5000.5,5677.111111111111
2026-01-08 18:02:14.380,2517.777777777778,-500.1111111111111,-997.6666666666666,4999.666666666667,5677.518518518518
2026-01-08 18:02:14.400,2554.8888888888887,-537.0555555555555,-961.8333333333333,4998.833333333333,5677.925925925926
2026-01-08 18:02:14.420,2592.0,-574.0,-926.0,4998.0,5678.333333333333
2026-01-08 18:02:14.440,2629.1111111111113,-610.9444444444445,-890.1666666666666,4997.166666666667,5678.740740740741
2026-01-08 18:02:14.460,2666.222222222222,-647.8888888888889,-854.3333333333333,4996.333333333333,5679.148148148148
2026-01-08 18:02:14.480,2703.3333333333335,-684.8333333333333,-818.5,4995.5,5679.555555555556
2026-01-08 18:02:14.500,2740.4444444444443,-721.7777777777777,-782.6666666666666,4994.666666666667,5679.962962962963
2026-01-08 18:02:14.520,2777.5555555555557,-758.7222222222222,-746.8333333333333,4993.833333333333,5680.37037037037
2026-01-08 18:02:14.540,2814.666666666667,-795.6666666666666,-711.0,4993.0,5680.777777777777
2026-01-08 18:02:14.560,2851.777777777778,-832.6111111111111,-675.1666666666666,4992.166666666667,5681.185185185185
2026-01-08 18:02:14.580,2888.8888888888887,-869.5555555555555,-639.3333333333333,4991.333333333333,5681.592592592592
2026-01-08 18:02:14.600,2926.0,-906.5,-603.4999999999999,4990.5,5682.0
2026-01-08 18:02:14.620,2963.1111111111113,-943.4444444444443,-567.6666666666666,4989.666666666667,5682.407407407408
2026-01-08 18:02:14.640,3000.2222222222226,-980.3888888888889,-531.8333333333333,4988.833333333333,5682.814814814815
2026-01-08 18:02:14.660,3037.3333333333335,-1017.3333333333333,-496.0,4988.0,5683.222222222223
2026-01-08 18:02:14.680,3074.4444444444443,-1054.2777777777778,-460.1666666666665,4987.166666666667,5683.62962962963
2026-01-08 18:02:14.700,3111.5555555555557,-1091.2222222222222,-424.33333333333326,4986.333333333333,5684.037037037037
2026-01-08 18:02:14.720,3148.666666666667,-1128.1666666666665,-388.5,4985.5,5684.444444444444
2026-01-08 18:02:14.740,3185.777777777778,-1165.111111111111,-352.6666666666665,4984.666666666667,5684.851851851852
2026-01-08 18:02:14.760,3222.8888888888887,-1202.0555555555554,-316.83333333333326,4983.833333333333,5685.259259259259
2026-01-08 18:02:14.780,3260.0,-1239.0,-281.0,4983.0,5685.666666666667
2026-01-08 18:02:14.800,3297.1111111111113,-1275.9444444444443,-245.16666666666652,4982.166666666667,5686.074074074074
2026-01-08 18:02:14.820,3334.2222222222226,-1312.888888888889,-209.33333333333326,4981.333333333333,5686.481481481482
2026-01-08 18:02:14.840,3371.3333333333335,-1349.8333333333333,-173.5,4980.5,5686.888888888889
2026-01-08 18:02:14.860,3408.4444444444443,-1386.7777777777778,-137.66666666666652,4979.666666666667,5687.2962962962965
2026-01-08 18:02:14.880,3445.5555555555557,-1423.7222222222222,-101.83333333333326,4978.833333333333,5687.7037037037035
2026-01-08 18:02:14.900,3482.666666666667,-1460.6666666666665,-66.0,4978.0,5688.111111111111
2026-01-08 18:02:14.920,3519.777777777778,-1497.611111111111,-30.166666666666515,4977.166666666667,5688.518518518518
2026-01-08 18:02:14.940,3556.888888888889,-1534.5555555555554,5.6666666666667425,4976.333333333333,5688.925925925926
2026-01-08 18:02:14.960,3594.0,-1571.5,41.5,4975.5,5689.333333333333
2026-01-08 18:02:14.980,3631.1111111111113,-1608.4444444444443,77.33333333333348,4974.666666666667,5689.740740740741
2026-01-08 18:02:15.000,3668.2222222222226,-1645.388888888889,113.16666666666674,4973.833333333333,5690.148148148148
2026-01-08 18:02:15.020,3705.3333333333335,-1682.3333333333333,149.0,4973.0,5690.555555555556
2026-01-08 18:02:15.040,3742.4444444444443,-1719.2777777777776,184.83333333333348,4972.166666666667,5690.962962962963
2026-01-08 18:02:15.060,3779.5555555555557,-1756.2222222222222,220.66666666666674,4971.333333333333,5691.37037037037
2026-01-08 18:02:15.080,3816.666666666667,-1793.1666666666665,256.5000000000002,4970.5,5691.777777777777
2026-01-08 18:02:15.100,3853.777777777778,-1830.111111111111,292.3333333333335,4969.666666666667,5692.185185185185
2026-01-08 18:02:15.120,3890.888888888889,-1867.0555555555554,328.16666666666674,4968.833333333333,5692.592592592592
2026-01-08 18:02:15.140,3928.0,-1904.0,364.0,4968.0,5693.0
2026-01-08 18:02:15.160,3927.7083333333335,-1862.4791666666667,322.0625,4968.125,5693.0625
2026-01-08 18:02:15.180,3927.4166666666665,-1820.9583333333333,280.125,4968.25,5693.125
2026-01-08 18:02:15.200,3927.125,-1779.4375,238.1875,4968.375,5693.1875
2026-01-08 18:02:15.220,3926.8333333333335,-1737.9166666666667,196.25,4968.5,5693.25
2026-01-08 18:02:15.240,3926.5416666666665,-1696.3958333333333,154.3125,4968.625,5693.3125
2026-01-08 18:02:15.260,3926.25,-1654.875,112.375,4968.75,5693.375
2026-01-08 18:02:15.280,3925.9583333333335,-1613.3541666666665,70.4375,4968.875,5693.4375
2026-01-08 18:02:15.300,3925.6666666666665,-1571.8333333333333,28.5,4969.0,5693.5
2026-01-08 18:02:15.320,3925.375,-1530.3125,-13.4375,4969.125,5693.5625
2026-01-08 18:02:15.340,3925.0833333333335,-1488.7916666666665,-55.375,4969.25,5693.625
2026-01-08 18:02:15.360,3924.7916666666665,-1447.2708333333333,-97.3125,4969.375,5693.6875
2026-01-08 18:02:15.380,3924.5,-1405.75,-139.25,4969.5,5693.75
2026-01-08 18:02:15.400,3924.2083333333335,-1364.2291666666665,-181.1875,4969.625,5693.8125
2026-01-08 18:02:15.420,3923.9166666666665,-1322.7083333333333,-223.125,4969.75,5693.875
2026-01-08 18:02:15.440,3923.625,-1281.1875,-265.0625,4969.875,5693.9375
2026-01-08 18:02:15.460,3923.3333333333335,-1239.6666666666665,-307.0,4970.0,5694.0
2026-01-08 18:02:15.480,3923.0416666666665,-1198.1458333333333,-348.9375,4970.125,5694.0625
2026-01-08 18:02:15.500,3922.75,-1156.625,-390.875,4970.25,5694.125
2026-01-08 18:02:15.520,3922.4583333333335,-1115.1041666666665,-432.8125,4970.375,5694.1875
2026-01-08 18:02:15.540,3922.1666666666665,-1073.5833333333333,-474.75,4970.5,5694.25
2026-01-08 18:02:15.560,3921.875,-1032.0625,-516.6875,4970.625,5694.3125
2026-01-08 18:02:15.580,3921.5833333333335,-990.5416666666666,-558.625,4970.75,5694.375
2026-01-08 18:02:15.600,3921.2916666666665,-949.0208333333333,-600.5625,4970.875,5694.4375
2026-01-08 18:02:15.620,3921.0,-907.5,-642.5,4971.0,5694.5
2026-01-08 18:02:15.640,3920.7083333333335,-865.9791666666665,-684.4375,4971.125,5694.5625
2026-01-08 18:02:15.660,3920.4166666666665,-824.4583333333333,-726.375,4971.25,5694.625
2026-01-08 18:02:15.680,3920.125,-782.9375,-768.3125,4971.375,5694.6875
2026-01-08 18:02:15.700,3919.8333333333335,-741.4166666666665,-810.25,4971.5,5694.75
2026-01-08 18:02:15.720,3919.5416666666665,-699.8958333333333,-852.1875,4971.625,5694.8125
2026-01-08 18:02:15.740,3919.25,-658.375,-894.125,4971.75,5694.875
2026-01-08 18:02:15.760,3918.9583333333335,-616.8541666666665,-936.0625,4971.875,5694.9375
2026-01-08 18:02:15.780,3918.6666666666665,-575.3333333333333,-978.0,4972.0,5695.0
2026-01-08 18:02:15.800,3918.375,-533.8125,-1019.9375,4972.125,5695.0625
2026-01-08 18:02:15.820,3918.0833333333335,-492.2916666666665,-1061.875,4972.25,5695.125
2026-01-08 18:02:15.840,3917.7916666666665,-450.77083333333326,-1103.8125,4972.375,5695.1875
2026-01-08 18:02:15.860,3917.5,-409.25,-1145.75,4972.5,5695.25
2026-01-08 18:02:15.880,3917.2083333333335,-367.7291666666665,-1187.6875,4972.625,5695.3125
2026-01-08 18:02:15.900,3916.9166666666665,-326.20833333333326,-1229.625,4972.75,5695.375
2026-01-08 18:02:15.920,3916.625,-284.6875,-1271.5625,4972.875,5695.4375
2026-01-08 18:02:15.940,3916.3333333333335,-243.16666666666652,-1313.5,4973.0,5695.5
2026-01-08 18:02:15.960,3916.0416666666665,-201.64583333333326,-1355.4375,4973.125,5695.5625
2026-01-08 18:02:15.980,3915.75,-160.125,-1397.375,4973.25,5695.625
2026-01-08 18:02:16.000,3915.4583333333335,-118.60416666666652,-1439.3125,4973.375,5695.6875
2026-01-08 18:02:16.020,3915.1666666666665,-77.08333333333326,-1481.25,4973.5,5695.75
2026-01-08 18:02:16.040,3914.875,-35.5625,-1523.1875,4973.625,5695.8125
2026-01-08 18:02:16.060,3914.5833333333335,5.958333333333485,-1565.125,4973.75,5695.875
2026-01-08 18:02:16.080,3914.2916666666665,47.47916666666674,-1607.0625,4973.875,5695.9375
2026-01-08 18:02:16.100,3914.0,89.0,-1649.0,4974.0,5696.0
2026-01-08 18:02:16.120,3873.8541666666665,48.645833333333336,-1607.7291666666667,4973.5625,5695.729166666667
2026-01-08 18:02:16.140,3833.7083333333335,8.291666666666671,-1566.4583333333333,4973.125,5695.458333333333
2026-01-08 18:02:16.160,3793.5625,-32.0625,-1525.1875,4972.6875,5695.1875
2026-01-08 18:02:16.180,3753.4166666666665,-72.41666666666666,-1483.9166666666667,4972.25,5694.916666666667
2026-01-08 18:02:16.200,3713.2708333333335,-112.77083333333331,-1442.6458333333333,4971.8125,5694.645833333333
2026-01-08 18:02:16.220,3673.125,-153.125,-1401.375,4971.375,5694.375
2026-01-08 18:02:16.240,3632.9791666666665,-193.47916666666663,-1360.1041666666665,4970.9375,5694.104166666667
2026-01-08 18:02:16.260,3592.8333333333335,-233.83333333333331,-1318.8333333333333,4970.5,5693.833333333333
2026-01-08 18:02:16.280,3552.6875,-274.1875,-1277.5625,4970.0625,5693.5625
2026-01-08 18:02:16.300,3512.5416666666665,-314.54166666666663,-1236.2916666666665,4969.625,5693.291666666667
2026-01-08 18:02:16.320,3472.3958333333335,-354.8958333333333,-1195.0208333333333,4969.1875,5693.020833333333
2026-01-08 18:02:16.340,3432.25,-395.25,-1153.75,4968.75,5692.75
2026-01-08 18:02:16.360,3392.1041666666665,-435.60416666666663,-1112.4791666666665,4968.3125,5692.479166666667
2026-01-08 18:02:16.380,3351.958333333333,-475.95833333333326,-1071.2083333333333,4967.875,5692.208333333333
2026-01-08 18:02:16.400,3311.8125,-516.3125,-1029.9375,4967.4375,5691.9375
2026-01-08 18:02:16.420,3271.6666666666665,-556.6666666666666,-988.6666666666666,4967.0,5691.666666666667
2026-01-08 18:02:16.440,3231.520833333333,-597.0208333333333,-947.3958333333333,4966.5625,5691.395833333333
2026-01-08 18:02:16.460,3191.375,-637.375,-906.125,4966.125,5691.125
2026-01-08 18:02:16.480,3151.2291666666665,-677.7291666666666,-864.8541666666666,4965.6875,5690.854166666667
2026-01-08 18:02:16.500,3111.083333333333,-718.0833333333333,-823.5833333333333,4965.25,5690.583333333333
2026-01-08 18:02:16.520,3070.9375,-758.4375,-782.3125,4964.8125,5690.3125
2026-01-08 18:02:16.540,3030.7916666666665,-798.7916666666666,-741.0416666666666,4964.375,5690.041666666667
2026-01-08 18:02:16.560,2990.645833333333,-839.1458333333333,-699.7708333333333,4963.9375,5689.770833333333
2026-01-08 18:02:16.580,2950.5,-879.5,-658.5,4963.5,5689.5
2026-01-08 18:02:16.600,2910.3541666666665,-919.8541666666666,-617.2291666666665,4963.0625,5689.229166666667
2026-01-08 18:02:16.620,2870.208333333333,-960.2083333333333,-575.9583333333333,4962.625,5688.958333333333
2026-01-08 18:02:16.640,2830.0625,-1000.5625,-534.6875,4962.1875,5688.6875
2026-01-08 18:02:16.660,2789.9166666666665,-1040.9166666666665,-493.4166666666665,4961.75,5688.416666666667
2026-01-08 18:02:16.680,2749.770833333333,-1081.2708333333333,-452.14583333333326,4961.3125,5688.145833333333
2026-01-08 18:02:16.700,2709.625,-1121.625,-410.875,4960.875,5687.875
2026-01-08 18:02:16.720,2669.4791666666665,-1161.9791666666665,-369.6041666666665,4960.4375,5687.604166666667
2026-01-08 18:02:16.740,2629.333333333333,-1202.3333333333333,-328.33333333333326,4960.0,5687.333333333333
2026-01-08 18:02:16.760,2589.1875,-1242.6875,-287.0625,4959.5625,5687.0625
2026-01-08 18:02:16.780,2549.0416666666665,-1283.0416666666665,-245.79166666666652,4959.125,5686.791666666667
2026-01-08 18:02:16.800,2508.895833333333,-1323.3958333333333,-204.52083333333326,4958.6875,5686.520833333333
2026-01-08 18:02:16.820,2468.75,-1363.75,-163.25,4958.25,5686.25
2026-01-08 18:02:16.840,2428.6041666666665,-1404.1041666666665,-121.97916666666652,4957.8125,5685.979166666667
2026-01-08 18:02:16.860,2388.458333333333,-1444.4583333333333,-80.70833333333326,4957.375,5685.708333333333
2026-01-08 18:02:16.880,2348.3125,-1484.8125,-39.4375,4956.9375,5685.4375
2026-01-08 18:02:16.900,2308.1666666666665,-1525.1666666666665,1.833333333333485,4956.5,5685.166666666667
2026-01-08 18:02:16.920,2268.020833333333,-1565.5208333333333,43.10416666666674,4956.0625,5684.895833333333
2026-01-08 18:02:16.940,2227.875,-1605.875,84.375,4955.625,5684.625
2026-01-08 18:02:16.960,2187.7291666666665,-1646.2291666666665,125.64583333333348,4955.1875,5684.354166666667
2026-01-08 18:02:16.980,2147.583333333333,-1686.5833333333333,166.91666666666674,4954.75,5684.083333333333
2026-01-08 18:02:17.000,2107.4375,-1726.9375,208.1875,4954.3125,5683.8125
2026-01-08 18:02:17.020,2067.2916666666665,-1767.2916666666665,249.45833333333348,4953.875,5683.541666666667
2026-01-08 18:02:17.040,2027.1458333333333,-1807.6458333333333,290.72916666666674,4953.4375,5683.270833333333
2026-01-08 18:02:17.060,1987.0,-1848.0,332.0,4953.0,5683.0
2026-01-08 18:02:17.080,2022.0555555555557,-1848.9444444444443,332.94444444444446,4952.592592592592,5683.722222222223
2026-01-08 18:02:17.100,2057.1111111111113,-1849.888888888889,333.8888888888889,4952.185185185185,5684.444444444444
2026-01-08 18:02:17.120,2092.1666666666665,-1850.8333333333333,334.8333333333333,4951.777777777777,5685.166666666667
2026-01-08 18:02:17.140,2127.222222222222,-1851.7777777777778,335.77777777777777,4951.37037037037,5685.888888888889
2026-01-08 18:02:17.160,2162.277777777778,-1852.7222222222222,336.72222222222223,4950.962962962963,5686.611111111111
2026-01-08 18:02:17.180,2197.3333333333335,-1853.6666666666667,337.6666666666667,4950.555555555556,5687.333333333333
2026-01-08 18:02:17.200,2232.3888888888887,-1854.611111111111,338.6111111111111,4950.148148148148,5688.055555555556
2026-01-08 18:02:17.220,2267.4444444444443,-1855.5555555555557,339.55555555555554,4949.740740740741,5688.777777777777
2026-01-08 18:02:17.240,2302.5,-1856.5,340.5,4949.333333333333,5689.5
2026-01-08 18:02:17.260,2337.5555555555557,-1857.4444444444443,341.44444444444446,4948.925925925926,5690.222222222223
2026-01-08 18:02:17.280,2372.6111111111113,-1858.388888888889,342.3888888888889,4948.518518518518,5690.944444444444
2026-01-08 18:02:17.300,2407.6666666666665,-1859.3333333333333,343.3333333333333,4948.111111111111,5691.666666666667
2026-01-08 18:02:17.320,2442.722222222222,-1860.2777777777778,344.27777777777777,4947.7037037037035,5692.388888888889
2026-01-08 18:02:17.340,2477.777777777778,-1861.2222222222222,345.22222222222223,4947.2962962962965,5693.111111111111
2026-01-08 18:02:17.360,2512.8333333333335,-1862.1666666666667,346.1666666666667,4946.888888888889,5693.833333333333
2026-01-08 18:02:17.380,2547.8888888888887,-1863.111111111111,347.1111111111111,4946.481481481482,5694.555555555556
2026-01-08 18:02:17.400,2582.9444444444443,-1864.0555555555557,348.05555555555554,4946.074074074074,5695.277777777777
2026-01-08 18:02:17.420,2618.0,-1865.0,349.0,4945.666666666667,5696.0
2026-01-08 18:02:17.440,2653.0555555555557,-1865.9444444444443,349.94444444444446,4945.259259259259,5696.722222222223
2026-01-08 18:02:17.460,2688.1111111111113,-1866.888888888889,350.8888888888889,4944.851851851852,5697.444444444444
2026-01-08 18:02:17.480,2723.166666666667,-1867.8333333333333,351.8333333333333,4944.444444444444,5698.166666666667
2026-01-08 18:02:17.500,2758.222222222222,-1868.7777777777778,352.77777777777777,4944.037037037037,5698.888888888889
2026-01-08 18:02:17.520,2793.277777777778,-1869.7222222222222,353.72222222222223,4943.62962962963,5699.611111111111
2026-01-08 18:02:17.540,2828.3333333333335,-1870.6666666666667,354.6666666666667,4943.222222222223,5700.333333333333
2026-01-08 18:02:17.560,2863.3888888888887,-1871.611111111111,355.6111111111111,4942.814814814815,5701.055555555556
2026-01-08 18:02:17.580,2898.4444444444443,-1872.5555555555557,356.55555555555554,4942.407407407408,5701.777777777777
2026-01-08 18:02:17.600,2933.5,-1873.5,357.5,4942.0,5702.5
2026-01-08 18:02:17.620,2968.5555555555557,-1874.4444444444443,358.44444444444446,4941.592592592592,5703.222222222223
2026-01-08 18:02:17.640,3003.6111111111113,-1875.388888888889,359.3888888888889,4941.185185185185,5703.944444444444
2026-01-08 18:02:17.660,3038.666666666667,-1876.3333333333333,360.3333333333333,4940.777777777777,5704.666666666667
2026-01-08 18:02:17.680,3073.722222222222,-1877.2777777777778,361.27777777777777,4940.37037037037,5705.388888888889
2026-01-08 18:02:17.700,3108.777777777778,-1878.2222222222222,362.22222222222223,4939.962962962963,5706.111111111111
2026-01-08 18:02:17.720,3143.8333333333335,-1879.1666666666667,363.1666666666667,4939.555555555556,5706.833333333333
2026-01-08 18:02:17.740,3178.8888888888887,-1880.111111111111,364.1111111111111,4939.148148148148,5707.555555555556
2026-01-08 18:02:17.760,3213.9444444444443,-1881.0555555555557,365.05555555555554,4938.740740740741,5708.277777777777
2026-01-08 18:02:17.780,3249.0,-1882.0,366.0,4938.333333333333,5709.0
2026-01-08 18:02:17.800,3284.0555555555557,-1882.9444444444443,366.94444444444446,4937.925925925926,5709.722222222223
2026-01-08 18:02:17.820,3319.1111111111113,-1883.888888888889,367.8888888888889,4937.518518518518,5710.444444444444
2026-01-08 18:02:17.840,3354.166666666667,-1884.8333333333333,368.8333333333333,4937.111111111111,5711.166666666667
2026-01-08 18:02:17.860,3389.222222222222,-1885.7777777777778,369.77777777777777,4936.7037037037035,5711.888888888889
2026-01-08 18:02:17.880,3424.277777777778,-1886.7222222222222,370.72222222222223,4936.2962962962965,5712.611111111111
2026-01-08 18:02:17.900,3459.3333333333335,-1887.6666666666667,371.6666666666667,4935.888888888889,5713.333333333333
2026-01-08 18:02:17.920,3494.3888888888887,-1888.611111111111,372.6111111111111,4935.481481481482,5714.055555555556
2026-01-08 18:02:17.940,3529.4444444444443,-1889.5555555555557,373.55555555555554,4935.074074074074,5714.777777777777
2026-01-08 18:02:17.960,3564.5,-1890.5,374.5,4934.666666666667,5715.5
2026-01-08 18:02:17.980,3599.5555555555557,-1891.4444444444443,375.44444444444446,4934.259259259259,5716.222222222223
2026-01-08 18:02:18.000,3634.6111111111113,-1892.388888888889,376.3888888888889,4933.851851851852,5716.944444444444
2026-01-08 18:02:18.020,3669.666666666667,-1893.3333333333333,377.3333333333333,4933.444444444444,5717.666666666667
2026-01-08 18:02:18.040,3704.7222222222226,-1894.2777777777778,378.27777777777777,4933.037037037037,5718.388888888889
2026-01-08 18:02:18.060,3739.777777777778,-1895.2222222222222,379.22222222222223,4932.62962962963,5719.111111111111
2026-01-08 18:02:18.080,3774.8333333333335,-1896.1666666666667,380.1666666666667,4932.222222222223,5719.833333333333
2026-01-08 18:02:18.100,3809.8888888888887,-1897.111111111111,381.1111111111111,4931.814814814815,5720.555555555556
2026-01-08 18:02:18.120,3844.9444444444443,-1898.0555555555557,382.05555555555554,4931.407407407408,5721.277777777777
2026-01-08 18:02:18.140,3880.0,-1899.0,383.0,4931.0,5722.0
2026-01-08 18:02:18.160,3879.9333333333334,-1898.3833333333334,378.0833333333333,4931.566666666667,5721.12962962963
2026-01-08 18:02:18.180,3879.866666666667,-1897.7666666666667,373.1666666666667,4932.133333333333,5720.259259259259
2026-01-08 18:02:18.200,3879.8,-1897.15,368.25,4932.7,5719.388888888889
2026-01-08 18:02:18.220,3879.733333333333,-1896.5333333333333,363.3333333333333,4933.266666666666,5718.518518518518
2026-01-08 18:02:18.240,3879.6666666666665,-1895.9166666666667,358.4166666666667,4933.833333333333,5717.648148148148
2026-01-08 18:02:18.260,3879.6,-1895.3,353.5,4934.4,5716.777777777777
2026-01-08 18:02:18.280,3879.5333333333333,-1894.6833333333334,348.5833333333333,4934.966666666666,5715.907407407408
2026-01-08 18:02:18.300,3879.4666666666667,-1894.0666666666666,343.6666666666667,4935.533333333334,5715.037037037037
2026-01-08 18:02:18.320,3879.4,-1893.45,338.75,4936.1,5714.166666666667
2026-01-08 18:02:18.340,3879.3333333333335,-1892.8333333333333,333.8333333333333,4936.666666666667,5713.2962962962965
2026-01-08 18:02:18.360,3879.266666666667,-1892.2166666666667,328.9166666666667,4937.233333333334,5712.425925925926
2026-01-08 18:02:18.380,3879.2,-1891.6,324.0,4937.8,5711.555555555556
2026-01-08 18:02:18.400,3879.133333333333,-1890.9833333333333,319.0833333333333,4938.366666666667,5710.685185185185
2026-01-08 18:02:18.420,3879.0666666666666,-1890.3666666666666,314.16666666666663,4938.933333333333,5709.814814814815
2026-01-08 18:02:18.440,3879.0,-1889.75,309.25,4939.5,5708.944444444444
2026-01-08 18:02:18.460,3878.9333333333334,-1889.1333333333334,304.3333333333333,4940.066666666667,5708.074074074074
2026-01-08 18:02:18.480,3878.866666666667,-1888.5166666666667,299.41666666666663,4940.633333333333,5707.2037037037035
2026-01-08 18:02:18.500,3878.8,-1887.9,294.5,4941.2,5706.333333333333
2026-01-08 18:02:18.520,3878.733333333333,-1887.2833333333333,289.5833333333333,4941.766666666666,5705.462962962963
2026-01-08 18:02:18.540,3878.6666666666665,-1886.6666666666667,284.66666666666663,4942.333333333333,5704.592592592592
2026-01-08 18:02:18.560,3878.6,-1886.05,279.75,4942.9,5703.722222222223
2026-01-08 18:02:18.580,3878.5333333333333,-1885.4333333333334,274.8333333333333,4943.466666666666,5702.851851851852
2026-01-08 18:02:18.600,3878.4666666666667,-1884.8166666666666,269.91666666666663,4944.033333333334,5701.981481481482
2026-01-08 18:02:18.620,3878.4,-1884.2,265.0,4944.6,5701.111111111111
2026-01-08 18:02:18.640,3878.3333333333335,-1883.5833333333333,260.0833333333333,4945.166666666667,5700.240740740741
2026-01-08 18:02:18.660,3878.266666666667,-1882.9666666666667,255.16666666666666,4945.733333333334,5699.37037037037
2026-01-08 18:02:18.680,3878.2,-1882.35,250.25,4946.3,5698.5
2026-01-08 18:02:18.700,3878.133333333333,-1881.7333333333333,245.33333333333331,4946.866666666667,5697.62962962963
2026-01-08 18:02:18.720,3878.0666666666666,-1881.1166666666666,240.41666666666666,4947.433333333333,5696.759259259259
2026-01-08 18:02:18.740,3878.0,-1880.5,235.5,4948.0,5695.888888888889
2026-01-08 18:02:18.760,3877.9333333333334,-1879.8833333333334,230.58333333333331,4948.566666666667,5695.018518518518
2026-01-08 18:02:18.780,3877.866666666667,-1879.2666666666667,225.66666666666666,4949.133333333333,5694.148148148148
2026-01-08 18:02:18.800,3877.8,-1878.65,220.75,4949.7,5693.277777777777
2026-01-08 18:02:18.820,3877.733333333333,-1878.0333333333333,215.83333333333331,4950.266666666666,5692.407407407408
2026-01-08 18:02:18.840,3877.6666666666665,-1877.4166666666667,210.91666666666666,4950.833333333333,5691.537037037037
2026-01-08 18:02:18.860,3877.6,-1876.8,206.0,4951.4,5690.666666666667
2026-01-08 18:02:18.880,3877.5333333333333,-1876.1833333333334,201.08333333333331,4951.966666666666,5689.7962962962965
2026-01-08 18:02:18.900,3877.4666666666667,-1875.5666666666666,196.16666666666666,4952.533333333334,5688.925925925926
2026-01-08 18:02:18.920,3877.4,-1874.95,191.25,4953.1,5688.055555555556
2026-01-08 18:02:18.940,3877.3333333333335,-1874.3333333333333,186.33333333333331,4953.666666666667,5687.185185185185
2026-01-08 18:02:18.960,3877.266666666667,-1873.7166666666667,181.41666666666666,4954.233333333334,5686.314814814815
2026-01-08 18:02:18.980,3877.2,-1873.1,176.5,4954.8,5685.444444444444
2026-01-08 18:02:19.000,3877.133333333333,-1872.4833333333333,171.58333333333331,4955.366666666667,5684.574074074074
2026-01-08 18:02:19.020,3877.0666666666666,-1871.8666666666666,166.66666666666666,4955.933333333333,5683.7037037037035
2026-01-08 18:02:19.040,3877.0,-1871.25,161.75,4956.5,5682.833333333333
2026-01-08 18:02:19.060,3876.9333333333334,-1870.6333333333334,156.83333333333331,4957.066666666667,5681.962962962963
2026-01-08 18:02:19.080,3876.866666666667,-1870.0166666666667,151.91666666666666,4957.633333333333,5681.092592592592
2026-01-08 18:02:19.100,3876.8,-1869.4,147.0,4958.2,5680.222222222223
2026-01-08 18:02:19.120,3876.733333333333,-1868.7833333333333,142.08333333333331,4958.766666666666,5679.351851851852
2026-01-08 18:02:19.140,3876.6666666666665,-1868.1666666666667,137.16666666666666,4959.333333333333,5678.481481481482
2026-01-08 18:02:19.160,3876.6,-1867.55,132.24999999999997,4959.9,5677.611111111111
2026-01-08 18:02:19.180,3876.5333333333333,-1866.9333333333334,127.33333333333331,4960.466666666666,5676.740740740741
2026-01-08 18:02:19.200,3876.4666666666667,-1866.3166666666666,122.41666666666663,4961.033333333334,5675.87037037037
2026-01-08 18:02:19.220,3876.4,-1865.7,117.5,4961.6,5675.0
2026-01-08 18:02:19.240,3876.3333333333335,-1865.0833333333333,112.58333333333331,4962.166666666667,5673.785714285715
2026-01-08 18:02:19.260,3876.266666666667,-1864.4666666666667,107.66666666666663,4962.733333333334,5672.571428571428
2026-01-08 18:02:19.280,3876.2,-1863.85,102.75,4963.3,5671.357142857143
2026-01-08 18:02:19.300,3876.133333333333,-1863.2333333333333,97.83333333333331,4963.866666666667,5670.142857142857
2026-01-08 18:02:19.320,3876.0666666666666,-1862.6166666666666,92.91666666666663,4964.433333333333,5668.928571428572
2026-01-08 18:02:19.340,3876.0,-1862.0,88.0,4965.0,5667.714285714285
2026-01-08 18:02:19.360,3875.722222222222,-1860.5,39.69444444444444,4966.0,5666.5
2026-01-08 18:02:19.380,3875.4444444444443,-1859.0,-8.611111111111114,4967.0,5665.285714285715
2026-01-08 18:02:19.400,3875.1666666666665,-1857.5,-56.916666666666686,4968.0,5664.071428571428
2026-01-08 18:02:19.420,3874.8888888888887,-1856.0,-105.22222222222223,4969.0,5662.857142857143
2026-01-08 18:02:19.440,3874.6111111111113,-1854.5,-153.52777777777777,4970.0,5661.642857142857
2026-01-08 18:02:19.460,3874.3333333333335,-1853.0,-201.83333333333337,4971.0,5660.428571428572
2026-01-08 18:02:19.480,3874.0555555555557,-1851.5,-250.1388888888889,4972.0,5659.214285714285
2026-01-08 18:02:19.500,3873.777777777778,-1850.0,-298.44444444444446,4973.0,5658.0
2026-01-08 18:02:19.520,3873.5,-1848.5,-346.75,4974.0,5656.785714285715
2026-01-08 18:02:19.540,3873.222222222222,-1847.0,-395.05555555555554,4975.0,5655.571428571428
2026-01-08 18:02:19.560,3872.9444444444443,-1845.5,-443.3611111111111,4976.0,5654.357142857143
2026-01-08 18:02:19.580,3872.6666666666665,-1844.0,-491.66666666666674,4977.0,5653.142857142857
2026-01-08 18:02:19.600,3872.3888888888887,-1842.5,-539.9722222222223,4978.0,5651.928571428572
2026-01-08 18:02:19.620,3872.1111111111113,-1841.0,-588.2777777777778,4979.0,5650.714285714285
2026-01-08 18:02:19.640,3871.8333333333335,-1839.5,-636.5833333333334,4980.0,5649.5
2026-01-08 18:02:19.660,3871.5555555555557,-1838.0,-684.8888888888889,4981.0,5648.285714285715
2026-01-08 18:02:19.680,3871.277777777778,-1836.5,-733.1944444444445,4982.0,5647.071428571428
2026-01-08 18:02:19.700,3871.0,-1835.0,-781.5,4983.0,5645.857142857143
2026-01-08 18:02:19.720,3870.722222222222,-1833.5,-829.8055555555555,4984.0,5644.642857142857
2026-01-08 18:02:19.740,3870.4444444444443,-1832.0,-878.1111111111111,4985.0,5643.428571428572
2026-01-08 18:02:19.760,3870.1666666666665,-1830.5,-926.4166666666667,4986.0,5642.214285714285
2026-01-08 18:02:19.780,3869.8888888888887,-1829.0,-974.7222222222222,4987.0,5641.0
2026-01-08 18:02:19.800,3869.6111111111113,-1827.5,-1023.0277777777778,4988.0,5639.785714285715
2026-01-08 18:02:19.820,3869.3333333333335,-1826.0,-1071.3333333333335,4989.0,5638.571428571428
2026-01-08 18:02:19.840,3869.0555555555557,-1824.5,-1119.638888888889,4990.0,5637.357142857143
2026-01-08 18:02:19.860,3868.777777777778,-1823.0,-1167.9444444444446,4991.0,5636.142857142857
2026-01-08 18:02:19.880,3868.5,-1821.5,-1216.25,4992.0,5634.928571428572
2026-01-08 18:02:19.900,3868.222222222222,-1820.0,-1264.5555555555557,4993.0,5633.714285714285
2026-01-08 18:02:19.920,3867.9444444444443,-1818.5,-1312.861111111111,4994.0,5632.5
2026-01-08 18:02:19.940,3867.6666666666665,-1817.0,-1361.1666666666667,4995.0,5631.285714285715
2026-01-08 18:02:19.960,3867.3888888888887,-1815.5,-1409.4722222222222,4996.0,5630.071428571428
2026-01-08 18:02:19.980,3867.1111111111113,-1814.0,-1457.7777777777778,4997.0,5628.857142857143
2026-01-08 18:02:20.000,3866.8333333333335,-1812.5,-1506.0833333333335,4998.0,5627.642857142857
2026-01-08 18:02:20.020,3866.5555555555557,-1811.0,-1554.388888888889,4999.0,5626.428571428572
2026-01-08 18:02:20.040,3866.277777777778,-1809.5,-1602.6944444444446,5000.0,5625.214285714285
2026-01-08 18:02:20.060,3866.0,-1808.0,-1651.0,5001.0,5624.0
2026-01-08 18:02:20.080,3825.5555555555557,-1767.6296296296296,-1613.4444444444443,5000.666666666667,5624.648148148148
2026-01-08 18:02:20.100,3785.1111111111113,-1727.2592592592594,-1575.888888888889,5000.333333333333,5625.2962962962965
2026-01-08 18:02:20.120,3744.6666666666665,-1686.888888888889,-1538.3333333333333,5000.0,5625.944444444444
2026-01-08 18:02:20.140,3704.222222222222,-1646.5185185185185,-1500.7777777777778,4999.666666666667,5626.592592592592
2026-01-08 18:02:20.160,3663.777777777778,-1606.148148148148,-1463.2222222222222,4999.333333333333,5627.240740740741
2026-01-08 18:02:20.180,3623.3333333333335,-1565.7777777777778,-1425.6666666666667,4999.0,5627.888888888889
2026-01-08 18:02:20.200,3582.8888888888887,-1525.4074074074074,-1388.111111111111,4998.666666666667,5628.537037037037
2026-01-08 18:02:20.220,3542.4444444444443,-1485.037037037037,-1350.5555555555557,4998.333333333333,5629.185185185185
2026-01-08 18:02:20.240,3502.0,-1444.6666666666665,-1313.0,4998.0,5629.833333333333
2026-01-08 18:02:20.260,3461.5555555555557,-1404.2962962962963,-1275.4444444444443,4997.666666666667,5630.481481481482
2026-01-08 18:02:20.280,3421.1111111111113,-1363.9259259259259,-1237.888888888889,4997.333333333333,5631.12962962963
2026-01-08 18:02:20.300,3380.6666666666665,-1323.5555555555557,-1200.3333333333333,4997.0,5631.777777777777
2026-01-08 18:02:20.320,3340.222222222222,-1283.1851851851852,-1162.7777777777778,4996.666666666667,5632.425925925926
2026-01-08 18:02:20.340,3299.777777777778,-1242.8148148148148,-1125.2222222222222,4996.333333333333,5633.074074074074
2026-01-08 18:02:20.360,3259.3333333333335,-1202.4444444444443,-1087.6666666666665,4996.0,5633.722222222223
2026-01-08 18:02:20.380,3218.8888888888887,-1162.074074074074,-1050.111111111111,4995.666666666667,5634.37037037037
2026-01-08 18:02:20.400,3178.4444444444443,-1121.7037037037037,-1012.5555555555555,4995.333333333333,5635.018518518518
2026-01-08 18:02:20.420,3138.0,-1081.3333333333333,-975.0,4995.0,5635.666666666667
2026-01-08 18:02:20.440,3097.5555555555557,-1040.962962962963,-937.4444444444445,4994.666666666667,5636.314814814815
2026-01-08 18:02:20.460,3057.1111111111113,-1000.5925925925925,-899.8888888888889,4994.333333333333,5636.962962962963
2026-01-08 18:02:20.480,3016.666666666667,-960.2222222222222,-862.3333333333333,4994.0,5637.611111111111
2026-01-08 18:02:20.500,2976.222222222222,-919.8518518518517,-824.7777777777777,4993.666666666667,5638.259259259259
2026-01-08 18:02:20.520,2935.777777777778,-879.4814814814814,-787.2222222222222,4993.333333333333,5638.907407407408
2026-01-08 18:02:20.540,2895.3333333333335,-839.1111111111111,-749.6666666666666,4993.0,5639.555555555556
2026-01-08 18:02:20.560,2854.8888888888887,-798.7407407407406,-712.1111111111111,4992.666666666667,5640.2037037037035
2026-01-08 18:02:20.580,2814.4444444444443,-758.3703703703702,-674.5555555555555,4992.333333333333,5640.851851851852
2026-01-08 18:02:20.600,2774.0,-718.0,-637.0,4992.0,5641.5
2026-01-08 18:02:20.620,2733.5555555555557,-677.6296296296296,-599.4444444444443,4991.666666666667,5642.148148148148
2026-01-08 18:02:20.640,2693.1111111111113,-637.2592592592591,-561.8888888888889,4991.333333333333,5642.7962962962965
2026-01-08 18:02:20.660,2652.666666666667,-596.8888888888887,-524.3333333333333,4991.0,5643.444444444444
2026-01-08 18:02:20.680,2612.222222222222,-556.5185185185185,-486.7777777777778,4990.666666666667,5644.092592592592
2026-01-08 18:02:20.700,2571.777777777778,-516.148148148148,-449.2222222222222,4990.333333333333,5644.740740740741
2026-01-08 18:02:20.720,2531.3333333333335,-475.7777777777776,-411.6666666666665,4990.0,5645.388888888889
2026-01-08 18:02:20.740,2490.8888888888887,-435.4074074074074,-374.1111111111111,4989.666666666667,5646.037037037037
2026-01-08 18:02:20.760,2450.4444444444443,-395.03703703703695,-336.55555555555543,4989.333333333333,5646.685185185185
2026-01-08 18:02:20.780,2410.0,-354.6666666666665,-299.0,4989.0,5647.333333333333
2026-01-08 18:02:20.800,2369.5555555555557,-314.2962962962961,-261.44444444444434,4988.666666666667,5647.981481481482
2026-01-08 18:02:20.820,2329.1111111111113,-273.92592592592587,-223.8888888888889,4988.333333333333,5648.62962962963
2026-01-08 18:02:20.840,2288.666666666667,-233.55555555555543,-186.33333333333326,4988.0,5649.277777777777
2026-01-08 18:02:20.860,2248.222222222222,-193.185185185185,-148.77777777777783,4987.666666666667,5649.925925925926
2026-01-08 18:02:20.880,2207.777777777778,-152.81481481481478,-111.22222222222217,4987.333333333333,5650.574074074074
2026-01-08 18:02:20.900,2167.3333333333335,-112.44444444444434,-73.66666666666652,4987.0,5651.222222222223
2026-01-08 18:02:20.920,2126.8888888888887,-72.0740740740739,-36.111111111111086,4986.666666666667,5651.87037037037
2026-01-08 18:02:20.940,2086.4444444444443,-31.703703703703468,1.4444444444445708,4986.333333333333,5652.518518518518
2026-01-08 18:02:20.960,2046.0,8.666666666666742,39.0,4986.0,5653.166666666667
2026-01-08 18:02:20.980,2005.5555555555557,49.03703703703718,76.55555555555566,4985.666666666667,5653.814814814815
2026-01-08 18:02:21.000,1965.111111111111,89.40740740740762,114.11111111111109,4985.333333333333,5654.462962962963
2026-01-08 18:02:21.020,1924.6666666666667,129.77777777777783,151.66666666666674,4985.0,5655.111111111111
2026-01-08 18:02:21.040,1884.2222222222224,170.14814814814827,189.2222222222224,4984.666666666667,5655.759259259259
2026-01-08 18:02:21.060,1843.7777777777778,210.5185185185187,226.77777777777783,4984.333333333333,5656.407407407408
2026-01-08 18:02:21.080,1803.3333333333335,250.88888888888914,264.3333333333335,4984.0,5657.055555555556
2026-01-08 18:02:21.100,1762.8888888888891,291.2592592592596,301.8888888888889,4983.666666666667,5657.7037037037035
2026-01-08 18:02:21.120,1722.4444444444443,331.62962962963,339.44444444444457,4983.333333333333,5658.351851851852
2026-01-08 18:02:21.140,1682.0,372.0,377.0,4983.0,5659.0
2026-01-08 18:02:21.160,1728.4583333333333,325.3333333333333,334.9166666666667,4983.833333333333,5658.333333333333
2026-01-08 18:02:21.180,1774.9166666666667,278.6666666666667,292.8333333333333,4984.666666666667,5657.666666666667
2026-01-08 18:02:21.200,1821.375,232.0,250.75,4985.5,5657.0
2026-01-08 18:02:21.220,1867.8333333333333,185.33333333333334,208.66666666666666,4986.333333333333,5656.333333333333
2026-01-08 18:02:21.240,1914.2916666666667,138.66666666666669,166.58333333333331,4987.166666666667,5655.666666666667
2026-01-08 18:02:21.260,1960.75,92.0,124.5,4988.0,5655.0
2026-01-08 18:02:21.280,2007.2083333333335,45.33333333333337,82.41666666666663,4988.833333333333,5654.333333333333
2026-01-08 18:02:21.300,2053.6666666666665,-1.3333333333333144,40.333333333333314,4989.666666666667,5653.666666666667
2026-01-08 18:02:21.320,2100.125,-48.0,-1.75,4990.5,5653.0
2026-01-08 18:02:21.340,2146.5833333333335,-94.66666666666663,-43.83333333333337,4991.333333333333,5652.333333333333
2026-01-08 18:02:21.360,2193.0416666666665,-141.33333333333326,-85.91666666666669,4992.166666666667,5651.666666666667
2026-01-08 18:02:21.380,2239.5,-188.0,-128.0,4993.0,5651.0
2026-01-08 18:02:21.400,2285.9583333333335,-234.66666666666663,-170.08333333333337,4993.833333333333,5650.333333333333
2026-01-08 18:02:21.420,2332.416666666667,-281.33333333333326,-212.16666666666674,4994.666666666667,5649.666666666667
2026-01-08 18:02:21.440,2378.875,-328.0,-254.25,4995.5,5649.0
2026-01-08 18:02:21.460,2425.3333333333335,-374.66666666666663,-296.33333333333337,4996.333333333333,5648.333333333333
2026-01-08 18:02:21.480,2471.791666666667,-421.33333333333326,-338.41666666666674,4997.166666666667,5647.666666666667
2026-01-08 18:02:21.500,2518.25,-468.0,-380.5,4998.0,5647.0
2026-01-08 18:02:21.520,2564.7083333333335,-514.6666666666666,-422.58333333333337,4998.833333333333,5646.333333333333
2026-01-08 18:02:21.540,2611.166666666667,-561.3333333333333,-464.66666666666674,4999.666666666667,5645.666666666667
2026-01-08 18:02:21.560,2657.625,-608.0,-506.75,5000.5,5645.0
2026-01-08 18:02:21.580,2704.0833333333335,-654.6666666666665,-548.8333333333334,5001.333333333333,5644.333333333333
2026-01-08 18:02:21.600,2750.541666666667,-701.3333333333333,-590.9166666666667,5002.166666666667,5643.666666666667
2026-01-08 18:02:21.620,2797.0,-748.0,-633.0,5003.0,5643.0
2026-01-08 18:02:21.640,2843.4583333333335,-794.6666666666665,-675.0833333333335,5003.833333333333,5642.333333333333
2026-01-08 18:02:21.660,2889.916666666667,-841.3333333333333,-717.1666666666667,5004.666666666667,5641.666666666667
2026-01-08 18:02:21.680,2936.375,-888.0,-759.25,5005.5,5641.0
2026-01-08 18:02:21.700,2982.8333333333335,-934.6666666666665,-801.3333333333335,5006.333333333333,5640.333333333333
2026-01-08 18:02:21.720,3029.291666666667,-981.3333333333333,-843.4166666666667,5007.166666666667,5639.666666666667
2026-01-08 18:02:21.740,3075.75,-1028.0,-885.5,5008.0,5639.0
2026-01-08 18:02:21.760,3122.2083333333335,-1074.6666666666665,-927.5833333333335,5008.833333333333,5638.333333333333
2026-01-08 18:02:21.780,3168.666666666667,-1121.3333333333333,-969.6666666666667,5009.666666666667,5637.666666666667
2026-01-08 18:02:21.800,3215.125,-1168.0,-1011.75,5010.5,5637.0
2026-01-08 18:02:21.820,3261.5833333333335,-1214.6666666666665,-1053.8333333333335,5011.333333333333,5636.333333333333
2026-01-08 18:02:21.840,3308.041666666667,-1261.3333333333333,-1095.9166666666667,5012.166666666667,5635.666666666667
2026-01-08 18:02:21.860,3354.5,-1308.0,-1138.0,5013.0,5635.0
2026-01-08 18:02:21.880,3400.9583333333335,-1354.6666666666665,-1180.0833333333335,5013.833333333333,5634.333333333333
2026-01-08 18:02:21.900,3447.416666666667,-1401.3333333333333,-1222.1666666666667,5014.666666666667,5633.666666666667
2026-01-08 18:02:21.920,3493.875,-1448.0,-1264.25,5015.5,5633.0
2026-01-08 18:02:21.940,3540.3333333333335,-1494.6666666666665,-1306.3333333333335,5016.333333333333,5632.333333333333
2026-01-08 18:02:21.960,3586.791666666667,-1541.3333333333333,-1348.4166666666667,5017.166666666667,5631.666666666667
2026-01-08 18:02:21.980,3633.25,-1588.0,-1390.5,5018.0,5631.0
2026-01-08 18:02:22.000,3679.7083333333335,-1634.6666666666665,-1432.5833333333335,5018.833333333333,5630.333333333333
2026-01-08 18:02:22.020,3726.166666666667,-1681.333333333333,-1474.6666666666667,5019.666666666667,5629.666666666667
2026-01-08 18:02:22.040,3772.625,-1728.0,-1516.75,5020.5,5629.0
2026-01-08 18:02:22.060,3819.0833333333335,-1774.6666666666665,-1558.8333333333335,5021.333333333333,5628.333333333333
2026-01-08 18:02:22.080,3865.541666666667,-1821.333333333333,-1600.9166666666667,5022.166666666667,5627.666666666667
2026-01-08 18:02:22.100,3912.0,-1868.0,-1643.0,5023.0,5627.0
2026-01-08 18:02:22.120,3911.4897959183672,-1866.9591836734694,-1602.061224489796,5022.791666666667,5628.041666666667
2026-01-08 18:02:22.140,3910.9795918367345,-1865.9183673469388,-1561.1224489795918,5022.583333333333,5629.083333333333
2026-01-08 18:02:22.160,3910.469387755102,-1864.8775510204082,-1520.1836734693877,5022.375,5630.125
2026-01-08 18:02:22.180,3909.9591836734694,-1863.8367346938776,-1479.2448979591836,5022.166666666667,5631.166666666667
2026-01-08 18:02:22.200,3909.4489795918366,-1862.795918367347,-1438.3061224489795,5021.958333333333,5632.208333333333
2026-01-08 18:02:22.220,3908.938775510204,-1861.7551020408164,-1397.3673469387754,5021.75,5633.25
2026-01-08 18:02:22.240,3908.4285714285716,-1860.7142857142858,-1356.4285714285716,5021.541666666667,5634.291666666667
2026-01-08 18:02:22.260,3907.918367346939,-1859.6734693877552,-1315.4897959183672,5021.333333333333,5635.333333333333
2026-01-08 18:02:22.280,3907.408163265306,-1858.6326530612246,-1274.5510204081634,5021.125,5636.375
2026-01-08 18:02:22.300,3906.8979591836733,-1857.591836734694,-1233.612244897959,5020.916666666667,5637.416666666667
2026-01-08 18:02:22.320,3906.387755102041,-1856.5510204081634,-1192.6734693877552,5020.708333333333,5638.458333333333
2026-01-08 18:02:22.340,3905.877551020408,-1855.5102040816328,-1151.734693877551,5020.5,5639.5
2026-01-08 18:02:22.360,3905.3673469387754,-1854.469387755102,-1110.795918367347,5020.291666666667,5640.541666666667
2026-01-08 18:02:22.380,3904.8571428571427,-1853.4285714285713,-1069.857142857143,5020.083333333333,5641.583333333333
2026-01-08 18:02:22.400,3904.3469387755104,-1852.3877551020407,-1028.9183673469388,5019.875,5642.625
2026-01-08 18:02:22.420,3903.8367346938776,-1851.3469387755101,-987.9795918367347,5019.666666666667,5643.666666666667
2026-01-08 18:02:22.440,3903.326530612245,-1850.3061224489795,-947.0408163265306,5019.458333333333,5644.708333333333
2026-01-08 18:02:22.460,3902.816326530612,-1849.265306122449,-906.1020408163265,5019.25,5645.75
2026-01-08 18:02:22.480,3902.3061224489797,-1848.2244897959183,-865.1632653061224,5019.041666666667,5646.791666666667
2026-01-08 18:02:22.500,3901.795918367347,-1847.1836734693877,-824.2244897959183,5018.833333333333,5647.833333333333
2026-01-08 18:02:22.520,3901.285714285714,-1846.142857142857,-783.2857142857143,5018.625,5648.875
2026-01-08 18:02:22.540,3900.7755102040815,-1845.1020408163265,-742.3469387755102,5018.416666666667,5649.916666666667
2026-01-08 18:02:22.560,3900.265306122449,-1844.061224489796,-701.4081632653061,5018.208333333333,5650.958333333333
2026-01-08 18:02:22.580,3899.7551020408164,-1843.0204081632653,-660.469387755102,5018.0,5652.0
2026-01-08 18:02:22.600,3899.2448979591836,-1841.9795918367347,-619.530612244898,5017.791666666667,5653.041666666667
2026-01-08 18:02:22.620,3898.734693877551,-1840.938775510204,-578.591836734694,5017.583333333333,5654.083333333333
2026-01-08 18:02:22.640,3898.2244897959185,-1839.8979591836735,-537.6530612244899,5017.375,5655.125
2026-01-08 18:02:22.660,3897.714285714286,-1838.857142857143,-496.7142857142858,5017.166666666667,5656.166666666667
2026-01-08 18:02:22.680,3897.204081632653,-1837.8163265306123,-455.7755102040817,5016.958333333333,5657.208333333333
2026-01-08 18:02:22.700,3896.6938775510203,-1836.7755102040817,-414.8367346938776,5016.75,5658.25
2026-01-08 18:02:22.720,3896.183673469388,-1835.734693877551,-373.8979591836735,5016.541666666667,5659.291666666667
2026-01-08 18:02:22.740,3895.673469387755,-1834.6938775510205,-332.9591836734694,5016.333333333333,5660.333333333333
2026-01-08 18:02:22.760,3895.1632653061224,-1833.6530612244899,-292.0204081632653,5016.125,5661.375
2026-01-08 18:02:22.780,3894.6530612244896,-1832.6122448979593,-251.0816326530612,5015.916666666667,5662.416666666667
2026-01-08 18:02:22.800,3894.1428571428573,-1831.5714285714287,-210.1428571428571,5015.708333333333,5663.458333333333
2026-01-08 18:02:22.820,3893.6326530612246,-1830.530612244898,-169.20408163265301,5015.5,5664.5
2026-01-08 18:02:22.840,3893.122448979592,-1829.4897959183672,-128.26530612244892,5015.291666666667,5665.541666666667
2026-01-08 18:02:22.860,3892.612244897959,-1828.4489795918366,-87.32653061224482,5015.083333333333,5666.583333333333
2026-01-08 18:02:22.880,3892.1020408163267,-1827.408163265306,-46.38775510204073,5014.875,5667.625
2026-01-08 18:02:22.900,3891.591836734694,-1826.3673469387754,-5.448979591836633,5014.666666666667,5668.666666666667
2026-01-08 18:02:22.920,3891.081632653061,-1825.3265306122448,35.489795918367236,5014.458333333333,5669.708333333333
2026-01-08 18:02:22.940,3890.5714285714284,-1824.2857142857142,76.42857142857133,5014.25,5670.75
2026-01-08 18:02:22.960,3890.061224489796,-1823.2448979591836,117.36734693877543,5014.041666666667,5671.791666666667
2026-01-08 18:02:22.980,3889.5510204081634,-1822.204081632653,158.30612244897952,5013.833333333333,5672.833333333333
2026-01-08 18:02:23.000,3889.0408163265306,-1821.1632653061224,199.24489795918362,5013.625,5673.875
2026-01-08 18:02:23.020,3888.530612244898,-1820.1224489795918,240.1836734693877,5013.416666666667,5674.916666666667
2026-01-08 18:02:23.040,3888.0204081632655,-1819.0816326530612,281.1224489795918,5013.208333333333,5675.958333333333
2026-01-08 18:02:23.060,3887.5102040816328,-1818.0408163265306,322.0612244897959,5013.0,5677.0
2026-01-08 18:02:23.080,3887.0,-1817.0,363.0,5013.0,5677.0
