timestamp,accX,accY,accZ,ppg,spO2
2026-01-10 20:40:34.600,3690.0,-1898.0,295.0,4723.0,5649.0
2026-01-10 20:40:34.620,3690.3061224489797,-1897.7755102040817,294.9183673469388,4723.0,5652.265306122449
2026-01-10 20:40:34.640,3690.612244897959,-1897.5510204081634,294.83673469387753,4723.0,5655.530612244898
2026-01-10 20:40:34.660,3690.918367346939,-1897.3265306122448,294.7551020408163,4723.0,5658.7959183673465
2026-01-10 20:40:34.680,3691.2244897959185,-1897.1020408163265,294.6734693877551,4723.0,5662.061224489796
2026-01-10 20:40:34.700,3691.530612244898,-1896.8775510204082,294.59183673469386,4723.0,5665.326530612245
2026-01-10 20:40:34.720,3691.8367346938776,-1896.6530612244899,294.51020408163265,4723.0,5668.591836734694
2026-01-10 20:40:34.740,3692.1428571428573,-1896.4285714285713,294.42857142857144,4723.0,5671.857142857143
2026-01-10 20:40:34.760,3692.4489795918366,-1896.204081632653,294.3469387755102,4723.0,5675.122448979592
2026-01-10 20:40:34.780,3692.7551020408164,-1895.9795918367347,294.265306122449,4723.0,5678.3877551020405
2026-01-10 20:40:34.800,3693.061224489796,-1895.7551020408164,294.18367346938777,4723.0,5681.65306122449
2026-01-10 20:40:34.820,3693.3673469387754,-1895.530612244898,294.1020408163265,4723.0,5684.918367346939
2026-01-10 20:40:34.840,3693.673469387755,-1895.3061224489795,294.0204081632653,4723.0,5688.183673469388
2026-01-10 20:40:34.860,3693.9795918367345,-1895.0816326530612,293.9387755102041,4723.0,5691.448979591837
2026-01-10 20:40:34.880,3694.285714285714,-1894.857142857143,293.85714285714283,4723.0,5694.714285714285
2026-01-10 20:40:34.900,3694.591836734694,-1894.6326530612246,293.7755102040816,4723.0,5697.9795918367345
2026-01-10 20:40:34.920,3694.8979591836733,-1894.408163265306,293.6938775510204,4723.0,5701.244897959184
2026-01-10 20:40:34.940,3695.204081632653,-1894.1836734693877,293.61224489795916,4723.0,5704.510204081633
2026-01-10 20:40:34.960,3695.5102040816328,-1893.9591836734694,293.53061224489795,4723.0,5707.775510204082
2026-01-10 20:40:34.980,3695.816326530612,-1893.734693877551,293.44897959183675,4723.0,5711.040816326531
2026-01-10 20:40:35.000,3696.122448979592,-1893.5102040816328,293.3673469387755,4723.0,5714.306122448979
2026-01-10 20:40:35.020,3696.4285714285716,-1893.2857142857142,293.2857142857143,4723.0,5717.571428571428
2026-01-10 20:40:35.040,3696.734693877551,-1893.061224489796,293.2040816326531,4723.0,5720.836734693878
2026-01-10 20:40:35.060,3697.0408163265306,-1892.8367346938776,293.1224489795918,4723.0,5724.102040816327
2026-01-10 20:40:35.080,3697.3469387755104,-1892.6122448979593,293.0408163265306,4723.0,5727.367346938776
2026-01-10 20:40:35.100,3697.6530612244896,-1892.3877551020407,292.9591836734694,4723.0,5730.632653061224
2026-01-10 20:40:35.120,3697.9591836734694,-1892.1632653061224,292.8775510204082,4723.0,5733.897959183673
2026-01-10 20:40:35.140,3698.265306122449,-1891.938775510204,292.7959183673469,4723.0,5737.163265306122
2026-01-10 20:40:35.160,3698.5714285714284,-1891.7142857142858,292.7142857142857,4723.0,5740.428571428572
2026-01-10 20:40:35.180,3698.877551020408,-1891.4897959183672,292.6326530612245,4723.0,5743.693877551021
2026-01-10 20:40:35.200,3699.183673469388,-1891.265306122449,292.55102040816325,4723.0,5746.959183673469
2026-01-10 20:40:35.220,3699.4897959183672,-1891.0408163265306,292.46938775510205,4723.0,5750.224489795918
2026-01-10 20:40:35.240,3699.795918367347,-1890.8163265306123,292.38775510204084,4723.0,5753.489795918367
2026-01-10 20:40:35.260,3700.1020408163267,-1890.591836734694,292.3061224489796,4723.0,5756.755102040816
2026-01-10 20:40:35.280,3700.408163265306,-1890.3673469387754,292.2244897959184,4723.0,5760.0204081632655
2026-01-10 20:40:35.300,3700.714285714286,-1890.142857142857,292.14285714285717,4723.0,5763.285714285715
2026-01-10 20:40:35.320,3701.0204081632655,-1889.9183673469388,292.0612244897959,4723.0,5766.551020408163
2026-01-10 20:40:35.340,3701.326530612245,-1889.6938775510205,291.9795918367347,4723.0,5769.816326530612
2026-01-10 20:40:35.360,3701.6326530612246,-1889.469387755102,291.8979591836735,4723.0,5773.081632653061
2026-01-10 20:40:35.380,3701.938775510204,-1889.2448979591836,291.81632653061223,4723.0,5776.34693877551
2026-01-10 20:40:35.400,3702.2448979591836,-1889.0204081632653,291.734693877551,4723.0,5779.6122448979595
2026-01-10 20:40:35.420,3702.5510204081634,-1888.795918367347,291.6530612244898,4723.0,5782.877551020408
2026-01-10 20:40:35.440,3702.8571428571427,-1888.5714285714287,291.57142857142856,4723.0,5786.142857142857
2026-01-10 20:40:35.460,3703.1632653061224,-1888.3469387755101,291.48979591836735,4723.0,5789.408163265306
2026-01-10 20:40:35.480,3703.469387755102,-1888.1224489795918,291.40816326530614,4723.0,5792.673469387755
2026-01-10 20:40:35.500,3703.7755102040815,-1887.8979591836735,291.3265306122449,4723.0,5795.938775510204
2026-01-10 20:40:35.520,3704.081632653061,-1887.6734693877552,291.2448979591837,4723.0,5799.2040816326535
2026-01-10 20:40:35.540,3704.387755102041,-1887.4489795918366,291.16326530612247,4723.0,5802.469387755102
2026-01-10 20:40:35.560,3704.6938775510203,-1887.2244897959183,291.0816326530612,4723.0,5805.734693877551
2026-01-10 20:40:35.580,3705.0,-1887.0,291.0,4723.0,5809.0
2026-01-10 20:40:35.600,3665.235294117647,-1886.8823529411766,291.96078431372547,4723.058823529412,5808.568627450981
2026-01-10 20:40:35.620,3625.470588235294,-1886.764705882353,292.921568627451,4723.117647058823,5808.137254901961
2026-01-10 20:40:35.640,3585.705882352941,-1886.6470588235295,293.88235294117646,4723.176470588235,5807.705882352941
2026-01-10 20:40:35.660,3545.9411764705883,-1886.5294117647059,294.84313725490193,4723.235294117647,5807.274509803921
2026-01-10 20:40:35.680,3506.176470588235,-1886.4117647058824,295.80392156862746,4723.294117647059,5806.843137254902
2026-01-10 20:40:35.700,3466.4117647058824,-1886.2941176470588,296.7647058823529,4723.35294117647,5806.411764705882
2026-01-10 20:40:35.720,3426.6470588235293,-1886.1764705882354,297.72549019607845,4723.411764705882,5805.980392156863
2026-01-10 20:40:35.740,3386.8823529411766,-1886.0588235294117,298.6862745098039,4723.470588235294,5805.549019607844
2026-01-10 20:40:35.760,3347.1176470588234,-1885.9411764705883,299.6470588235294,4723.529411764706,5805.117647058823
2026-01-10 20:40:35.780,3307.3529411764707,-1885.8235294117646,300.6078431372549,4723.588235294118,5804.686274509804
2026-01-10 20:40:35.800,3267.5882352941176,-1885.7058823529412,301.5686274509804,4723.64705882353,5804.254901960784
2026-01-10 20:40:35.820,3227.823529411765,-1885.5882352941176,302.52941176470586,4723.705882352941,5803.823529411765
2026-01-10 20:40:35.840,3188.0588235294117,-1885.4705882352941,303.4901960784314,4723.764705882353,5803.392156862745
2026-01-10 20:40:35.860,3148.2941176470586,-1885.3529411764705,304.45098039215685,4723.823529411765,5802.9607843137255
2026-01-10 20:40:35.880,3108.529411764706,-1885.235294117647,305.4117647058824,4723.882352941177,5802.529411764706
2026-01-10 20:40:35.900,3068.764705882353,-1885.1176470588234,306.37254901960785,4723.941176470588,5802.098039215686
2026-01-10 20:40:35.920,3029.0,-1885.0,307.3333333333333,4724.0,5801.666666666667
2026-01-10 20:40:35.940,2989.235294117647,-1884.8823529411766,308.29411764705884,4724.058823529412,5801.235294117647
2026-01-10 20:40:35.960,2949.470588235294,-1884.764705882353,309.2549019607843,4724.117647058823,5800.803921568628
2026-01-10 20:40:35.980,2909.7058823529414,-1884.6470588235295,310.2156862745098,4724.176470588235,5800.3725490196075
2026-01-10 20:40:36.000,2869.9411764705883,-1884.5294117647059,311.1764705882353,4724.235294117647,5799.941176470588
2026-01-10 20:40:36.020,2830.176470588235,-1884.4117647058824,312.1372549019608,4724.294117647059,5799.509803921569
2026-01-10 20:40:36.040,2790.4117647058824,-1884.2941176470588,313.0980392156863,4724.35294117647,5799.078431372549
2026-01-10 20:40:36.060,2750.6470588235293,-1884.1764705882354,314.05882352941177,4724.411764705882,5798.64705882353
2026-01-10 20:40:36.080,2710.8823529411766,-1884.0588235294117,315.01960784313724,4724.470588235294,5798.21568627451
2026-01-10 20:40:36.100,2671.1176470588234,-1883.9411764705883,315.98039215686276,4724.529411764706,5797.78431372549
2026-01-10 20:40:36.120,2631.3529411764703,-1883.8235294117646,316.94117647058823,4724.588235294118,5797.35294117647
2026-01-10 20:40:36.140,2591.5882352941176,-1883.7058823529412,317.9019607843137,4724.64705882353,5796.921568627451
2026-01-10 20:40:36.160,2551.823529411765,-1883.5882352941176,318.8627450980392,4724.705882352941,5796.490196078431
2026-01-10 20:40:36.180,2512.0588235294117,-1883.4705882352941,319.8235294117647,4724.764705882353,5796.058823529412
2026-01-10 20:40:36.200,2472.2941176470586,-1883.3529411764705,320.7843137254902,4724.823529411765,5795.6274509803925
2026-01-10 20:40:36.220,2432.529411764706,-1883.235294117647,321.7450980392157,4724.882352941177,5795.196078431372
2026-01-10 20:40:36.240,2392.764705882353,-1883.1176470588234,322.70588235294116,4724.941176470588,5794.764705882353
2026-01-10 20:40:36.260,2353.0,-1883.0,323.6666666666667,4725.0,5794.333333333333
2026-01-10 20:40:36.280,2313.235294117647,-1882.8823529411766,324.62745098039215,4725.058823529412,5793.901960784314
2026-01-10 20:40:36.300,2273.470588235294,-1882.764705882353,325.5882352941176,4725.117647058823,5793.470588235294
2026-01-10 20:40:36.320,2233.7058823529414,-1882.6470588235295,326.54901960784315,4725.176470588235,5793.0392156862745
2026-01-10 20:40:36.340,2193.9411764705883,-1882.5294117647059,327.5098039215686,4725.235294117647,5792.607843137255
2026-01-10 20:40:36.360,2154.176470588235,-1882.4117647058824,328.47058823529414,4725.294117647059,5792.176470588235
2026-01-10 20:40:36.380,2114.4117647058824,-1882.2941176470588,329.4313725490196,4725.35294117647,5791.745098039216
2026-01-10 20:40:36.400,2074.6470588235293,-1882.1764705882354,330.3921568627451,4725.411764705882,5791.313725490196
2026-01-10 20:40:36.420,2034.8823529411764,-1882.0588235294117,331.3529411764706,4725.470588235294,5790.882352941177
2026-01-10 20:40:36.440,1995.1176470588234,-1881.9411764705883,332.3137254901961,4725.529411764706,5790.450980392156
2026-01-10 20:40:36.460,1955.3529411764705,-1881.8235294117646,333.27450980392155,4725.588235294118,5790.019607843137
2026-01-10 20:40:36.480,1915.5882352941176,-1881.7058823529412,334.2352941176471,4725.64705882353,5789.588235294118
2026-01-10 20:40:36.500,1875.8235294117646,-1881.5882352941176,335.19607843137254,4725.705882352941,5789.156862745098
2026-01-10 20:40:36.520,1836.0588235294117,-1881.4705882352941,336.156862745098,4725.764705882353,5788.725490196079
2026-01-10 20:40:36.540,1796.2941176470588,-1881.3529411764705,337.11764705882354,4725.823529411765,5788.294117647059
2026-01-10 20:40:36.560,1756.5294117647059,-1881.235294117647,338.078431372549,4725.882352941177,5787.862745098039
2026-01-10 20:40:36.580,1716.764705882353,-1881.1176470588234,339.03921568627453,4725.941176470588,5787.431372549019
2026-01-10 20:40:36.600,1677.0,-1881.0,340.0,4726.0,5787.0
2026-01-10 20:40:36.620,1717.48,-1880.24,338.8,4726.18,5788.02
2026-01-10 20:40:36.640,1757.96,-1879.48,337.6,4726.36,5789.04
2026-01-10 20:40:36.660,1798.44,-1878.72,336.4,4726.54,5790.06
2026-01-10 20:40:36.680,1838.92,-1877.96,335.2,4726.72,5791.08
2026-01-10 20:40:36.700,1879.4,-1877.2,334.0,4726.9,5792.1
2026-01-10 20:40:36.720,1919.88,-1876.44,332.8,4727.08,5793.12
2026-01-10 20:40:36.740,1960.36,-1875.68,331.6,4727.26,5794.14
2026-01-10 20:40:36.760,2000.84,-1874.92,330.4,4727.44,5795.16
2026-01-10 20:40:36.780,2041.32,-1874.16,329.2,4727.62,5796.18
2026-01-10 20:40:36.800,2081.8,-1873.4,328.0,4727.8,5797.2
2026-01-10 20:40:36.820,2122.2799999999997,-1872.64,326.8,4727.98,5798.22
2026-01-10 20:40:36.840,2162.76,-1871.88,325.6,4728.16,5799.24
2026-01-10 20:40:36.860,2203.24,-1871.12,324.4,4728.34,5800.26
2026-01-10 20:40:36.880,2243.72,-1870.36,323.2,4728.52,5801.28
2026-01-10 20:40:36.900,2284.2,-1869.6,322.0,4728.7,5802.3
2026-01-10 20:40:36.920,2324.68,-1868.84,320.8,4728.88,5803.32
2026-01-10 20:40:36.940,2365.16,-1868.08,319.6,4729.06,5804.34
2026-01-10 20:40:36.960,2405.64,-1867.32,318.4,4729.24,5805.36
2026-01-10 20:40:36.980,2446.12,-1866.56,317.2,4729.42,5806.38
2026-01-10 20:40:37.000,2486.6,-1865.8,316.0,4729.6,5807.4
2026-01-10 20:40:37.020,2527.08,-1865.04,314.8,4729.78,5808.42
2026-01-10 20:40:37.040,2567.56,-1864.28,313.6,4729.96,5809.44
2026-01-10 20:40:37.060,2608.04,-1863.52,312.4,4730.14,5810.46
2026-01-10 20:40:37.080,2648.52,-1862.76,311.2,4730.32,5811.48
2026-01-10 20:40:37.100,2689.0,-1862.0,310.0,4730.5,5812.5
2026-01-10 20:40:37.120,2729.48,-1861.24,308.8,4730.68,5813.52
2026-01-10 20:40:37.140,2769.96,-1860.48,307.6,4730.86,5814.54
2026-01-10 20:40:37.160,2810.4399999999996,-1859.72,306.4,4731.04,5815.56
2026-01-10 20:40:37.180,2850.92,-1858.96,305.2,4731.22,5816.58
2026-01-10 20:40:37.200,2891.3999999999996,-1858.2,304.0,4731.4,5817.6
2026-01-10 20:40:37.220,2931.88,-1857.44,302.8,4731.58,5818.62
2026-01-10 20:40:37.240,2972.3599999999997,-1856.68,301.6,4731.76,5819.64
2026-01-10 20:40:37.260,3012.84,-1855.92,300.4,4731.94,5820.66
2026-01-10 20:40:37.280,3053.3199999999997,-1855.16,299.2,4732.12,5821.68
2026-01-10 20:40:37.300,3093.8,-1854.4,298.0,4732.3,5822.7
2026-01-10 20:40:37.320,3134.2799999999997,-1853.64,296.8,4732.48,5823.72
2026-01-10 20:40:37.340,3174.76,-1852.88,295.6,4732.66,5824.74
2026-01-10 20:40:37.360,3215.24,-1852.12,294.4,4732.84,5825.76
2026-01-10 20:40:37.380,3255.72,-1851.36,293.2,4733.02,5826.78
2026-01-10 20:40:37.400,3296.2,-1850.6,292.0,4733.2,5827.8
2026-01-10 20:40:37.420,3336.68,-1849.84,290.8,4733.38,5828.82
2026-01-10 20:40:37.440,3377.16,-1849.08,289.6,4733.56,5829.84
2026-01-10 20:40:37.460,3417.64,-1848.32,288.4,4733.74,5830.86
2026-01-10 20:40:37.480,3458.12,-1847.56,287.2,4733.92,5831.88
2026-01-10 20:40:37.500,3498.6,-1846.8,286.0,4734.1,5832.9
2026-01-10 20:40:37.520,3539.08,-1846.04,284.8,4734.28,5833.92
2026-01-10 20:40:37.540,3579.56,-1845.28,283.6,4734.46,5834.94
2026-01-10 20:40:37.560,3620.04,-1844.52,282.4,4734.64,5835.96
2026-01-10 20:40:37.580,3660.5199999999995,-1843.76,281.2,4734.82,5836.98
2026-01-10 20:40:37.600,3701.0,-1843.0,280.0,4735.0,5838.0
2026-01-10 20:40:37.620,3661.235294117647,-1843.549019607843,280.47058823529414,4734.607843137255,5837.489795918367
2026-01-10 20:40:37.640,3621.470588235294,-1844.0980392156862,280.94117647058823,4734.21568627451,5836.9795918367345
2026-01-10 20:40:37.660,3581.705882352941,-1844.6470588235295,281.4117647058824,4733.823529411765,5836.469387755102
2026-01-10 20:40:37.680,3541.9411764705883,-1845.1960784313726,281.88235294117646,4733.431372549019,5835.959183673469
2026-01-10 20:40:37.700,3502.176470588235,-1845.7450980392157,282.3529411764706,4733.0392156862745,5835.448979591837
2026-01-10 20:40:37.720,3462.4117647058824,-1846.2941176470588,282.8235294117647,4732.64705882353,5834.938775510204
2026-01-10 20:40:37.740,3422.6470588235293,-1846.8431372549019,283.29411764705884,4732.254901960784,5834.428571428572
2026-01-10 20:40:37.760,3382.8823529411766,-1847.3921568627452,283.7647058823529,4731.862745098039,5833.918367346939
2026-01-10 20:40:37.780,3343.1176470588234,-1847.9411764705883,284.2352941176471,4731.470588235294,5833.408163265306
2026-01-10 20:40:37.800,3303.3529411764707,-1848.4901960784314,284.70588235294116,4731.078431372549,5832.897959183673
2026-01-10 20:40:37.820,3263.5882352941176,-1849.0392156862745,285.1764705882353,4730.686274509804,5832.3877551020405
2026-01-10 20:40:37.840,3223.823529411765,-1849.5882352941176,285.6470588235294,4730.294117647059,5831.877551020408
2026-01-10 20:40:37.860,3184.0588235294117,-1850.137254901961,286.11764705882354,4729.901960784314,5831.367346938776
2026-01-10 20:40:37.880,3144.2941176470586,-1850.686274509804,286.5882352941176,4729.509803921569,5830.857142857143
2026-01-10 20:40:37.900,3104.529411764706,-1851.235294117647,287.05882352941177,4729.117647058823,5830.34693877551
2026-01-10 20:40:37.920,3064.764705882353,-1851.7843137254902,287.52941176470586,4728.725490196079,5829.836734693878
2026-01-10 20:40:37.940,3025.0,-1852.3333333333333,288.0,4728.333333333333,5829.326530612245
2026-01-10 20:40:37.960,2985.235294117647,-1852.8823529411766,288.47058823529414,4727.941176470588,5828.816326530612
2026-01-10 20:40:37.980,2945.470588235294,-1853.4313725490197,288.94117647058823,4727.549019607844,5828.306122448979
2026-01-10 20:40:38.000,2905.7058823529414,-1853.9803921568628,289.4117647058824,4727.156862745098,5827.7959183673465
2026-01-10 20:40:38.020,2865.9411764705883,-1854.5294117647059,289.88235294117646,4726.764705882353,5827.285714285715
2026-01-10 20:40:38.040,2826.176470588235,-1855.078431372549,290.3529411764706,4726.3725490196075,5826.775510204082
2026-01-10 20:40:38.060,2786.4117647058824,-1855.6274509803923,290.8235294117647,4725.980392156863,5826.265306122449
2026-01-10 20:40:38.080,2746.6470588235293,-1856.1764705882354,291.29411764705884,4725.588235294118,5825.755102040816
2026-01-10 20:40:38.100,2706.8823529411766,-1856.7254901960785,291.7647058823529,4725.196078431372,5825.244897959184
2026-01-10 20:40:38.120,2667.1176470588234,-1857.2745098039215,292.2352941176471,4724.803921568628,5824.734693877551
2026-01-10 20:40:38.140,2627.3529411764703,-1857.8235294117646,292.70588235294116,4724.411764705882,5824.224489795918
2026-01-10 20:40:38.160,2587.5882352941176,-1858.372549019608,293.1764705882353,4724.019607843137,5823.714285714285
2026-01-10 20:40:38.180,2547.823529411765,-1858.921568627451,293.6470588235294,4723.6274509803925,5823.2040816326535
2026-01-10 20:40:38.200,2508.0588235294117,-1859.4705882352941,294.11764705882354,4723.235294117647,5822.693877551021
2026-01-10 20:40:38.220,2468.2941176470586,-1860.0196078431372,294.5882352941176,4722.843137254902,5822.183673469388
2026-01-10 20:40:38.240,2428.529411764706,-1860.5686274509803,295.05882352941177,4722.450980392156,5821.673469387755
2026-01-10 20:40:38.260,2388.764705882353,-1861.1176470588234,295.52941176470586,4722.058823529412,5821.163265306122
2026-01-10 20:40:38.280,2349.0,-1861.6666666666667,296.0,4721.666666666667,5820.65306122449
2026-01-10 20:40:38.300,2309.235294117647,-1862.2156862745098,296.47058823529414,4721.274509803921,5820.142857142857
2026-01-10 20:40:38.320,2269.470588235294,-1862.764705882353,296.94117647058823,4720.882352941177,5819.632653061224
2026-01-10 20:40:38.340,2229.7058823529414,-1863.313725490196,297.4117647058824,4720.490196078431,5819.122448979592
2026-01-10 20:40:38.360,2189.9411764705883,-1863.862745098039,297.88235294117646,4720.098039215686,5818.6122448979595
2026-01-10 20:40:38.380,2150.176470588235,-1864.4117647058824,298.3529411764706,4719.705882352941,5818.102040816327
2026-01-10 20:40:38.400,2110.4117647058824,-1864.9607843137255,298.8235294117647,4719.313725490196,5817.591836734694
2026-01-10 20:40:38.420,2070.6470588235293,-1865.5098039215686,299.29411764705884,4718.921568627451,5817.081632653061
2026-01-10 20:40:38.440,2030.8823529411764,-1866.0588235294117,299.7647058823529,4718.529411764706,5816.571428571428
2026-01-10 20:40:38.460,1991.1176470588234,-1866.6078431372548,300.2352941176471,4718.137254901961,5816.061224489796
2026-01-10 20:40:38.480,1951.3529411764705,-1867.1568627450981,300.70588235294116,4717.745098039216,5815.551020408163
2026-01-10 20:40:38.500,1911.5882352941176,-1867.7058823529412,301.1764705882353,4717.35294117647,5815.040816326531
2026-01-10 20:40:38.520,1871.8235294117646,-1868.2549019607843,301.6470588235294,4716.9607843137255,5814.530612244898
2026-01-10 20:40:38.540,1832.0588235294117,-1868.8039215686274,302.11764705882354,4716.568627450981,5814.0204081632655
2026-01-10 20:40:38.560,1792.2941176470588,-1869.3529411764705,302.5882352941176,4716.176470588235,5813.510204081633
2026-01-10 20:40:38.580,1752.5294117647059,-1869.9019607843138,303.05882352941177,4715.78431372549,5813.0
2026-01-10 20:40:38.600,1712.764705882353,-1870.450980392157,303.52941176470586,4715.392156862745,5813.816326530612
2026-01-10 20:40:38.620,1673.0,-1871.0,304.0,4715.0,5814.632653061224
2026-01-10 20:40:38.640,1713.1836734693877,-1869.6530612244899,305.0408163265306,4715.553191489362,5815.448979591837
2026-01-10 20:40:38.660,1753.3673469387754,-1868.3061224489795,306.0816326530612,4716.106382978724,5816.265306122449
2026-01-10 20:40:38.680,1793.5510204081634,-1866.9591836734694,307.1224489795918,4716.659574468085,5817.081632653061
2026-01-10 20:40:38.700,1833.734693877551,-1865.6122448979593,308.16326530612247,4717.212765957447,5817.897959183673
2026-01-10 20:40:38.720,1873.9183673469388,-1864.265306122449,309.2040816326531,4717.765957446809,5818.714285714285
2026-01-10 20:40:38.740,1914.1020408163265,-1862.9183673469388,310.2448979591837,4718.31914893617,5819.530612244898
2026-01-10 20:40:38.760,1954.2857142857142,-1861.5714285714287,311.2857142857143,4718.872340425532,5820.34693877551
2026-01-10 20:40:38.780,1994.4693877551022,-1860.2244897959183,312.3265306122449,4719.425531914893,5821.163265306122
2026-01-10 20:40:38.800,2034.6530612244899,-1858.8775510204082,313.3673469387755,4719.978723404255,5821.9795918367345
2026-01-10 20:40:38.820,2074.8367346938776,-1857.530612244898,314.40816326530614,4720.531914893617,5822.7959183673465
2026-01-10 20:40:38.840,2115.0204081632655,-1856.1836734693877,315.44897959183675,4721.085106382979,5823.6122448979595
2026-01-10 20:40:38.860,2155.204081632653,-1854.8367346938776,316.48979591836735,4721.63829787234,5824.428571428572
2026-01-10 20:40:38.880,2195.387755102041,-1853.4897959183672,317.53061224489795,4722.191489361702,5825.244897959184
2026-01-10 20:40:38.900,2235.5714285714284,-1852.142857142857,318.57142857142856,4722.744680851064,5826.061224489796
2026-01-10 20:40:38.920,2275.7551020408164,-1850.795918367347,319.61224489795916,4723.297872340426,5826.877551020408
2026-01-10 20:40:38.940,2315.9387755102043,-1849.4489795918366,320.6530612244898,4723.851063829788,5827.693877551021
2026-01-10 20:40:38.960,2356.122448979592,-1848.1020408163265,321.6938775510204,4724.404255319149,5828.510204081633
2026-01-10 20:40:38.980,2396.3061224489797,-1846.7551020408164,322.734693877551,4724.95744680851,5829.326530612245
2026-01-10 20:40:39.000,2436.4897959183672,-1845.408163265306,323.7755102040816,4725.510638297872,5830.142857142857
2026-01-10 20:40:39.020,2476.673469387755,-1844.061224489796,324.81632653061223,4726.063829787234,5830.959183673469
2026-01-10 20:40:39.040,2516.857142857143,-1842.7142857142858,325.85714285714283,4726.617021276596,5831.775510204082
2026-01-10 20:40:39.060,2557.0408163265306,-1841.3673469387754,326.8979591836735,4727.170212765957,5832.591836734694
2026-01-10 20:40:39.080,2597.2244897959185,-1840.0204081632653,327.9387755102041,4727.723404255319,5833.408163265306
2026-01-10 20:40:39.100,2637.408163265306,-1838.6734693877552,328.9795918367347,4728.276595744681,5834.224489795918
2026-01-10 20:40:39.120,2677.591836734694,-1837.3265306122448,330.0204081632653,4728.829787234043,5835.040816326531
2026-01-10 20:40:39.140,2717.775510204082,-1835.9795918367347,331.0612244897959,4729.382978723404,5835.857142857143
2026-01-10 20:40:39.160,2757.9591836734694,-1834.6326530612246,332.1020408163265,4729.936170212766,5836.673469387755
2026-01-10 20:40:39.180,2798.142857142857,-1833.2857142857142,333.14285714285717,4730.489361702128,5837.489795918367
2026-01-10 20:40:39.200,2838.326530612245,-1831.938775510204,334.18367346938777,4731.04255319149,5838.306122448979
2026-01-10 20:40:39.220,2878.5102040816328,-1830.591836734694,335.2244897959184,4731.595744680851,5839.122448979592
2026-01-10 20:40:39.240,2918.6938775510207,-1829.2448979591836,336.265306122449,4732.148936170212,5839.938775510204
2026-01-10 20:40:39.260,2958.877551020408,-1827.8979591836735,337.3061224489796,4732.702127659574,5840.755102040816
2026-01-10 20:40:39.280,2999.0612244897957,-1826.5510204081634,338.3469387755102,4733.255319148936,5841.571428571428
2026-01-10 20:40:39.300,3039.2448979591836,-1825.204081632653,339.38775510204084,4733.808510638298,5842.3877551020405
2026-01-10 20:40:39.320,3079.4285714285716,-1823.857142857143,340.42857142857144,4734.36170212766,5843.2040816326535
2026-01-10 20:40:39.340,3119.6122448979595,-1822.5102040816328,341.46938775510205,4734.914893617021,5844.0204081632655
2026-01-10 20:40:39.360,3159.795918367347,-1821.1632653061224,342.51020408163265,4735.468085106383,5844.836734693878
2026-01-10 20:40:39.380,3199.9795918367345,-1819.8163265306123,343.55102040816325,4736.021276595745,5845.65306122449
2026-01-10 20:40:39.400,3240.1632653061224,-1818.469387755102,344.59183673469386,4736.574468085107,5846.469387755102
2026-01-10 20:40:39.420,3280.3469387755104,-1817.1224489795918,345.63265306122446,4737.127659574468,5847.285714285715
2026-01-10 20:40:39.440,3320.5306122448983,-1815.7755102040817,346.6734693877551,4737.68085106383,5848.102040816327
2026-01-10 20:40:39.460,3360.714285714286,-1814.4285714285713,347.7142857142857,4738.234042553191,5848.918367346939
2026-01-10 20:40:39.480,3400.8979591836733,-1813.0816326530612,348.7551020408163,4738.787234042553,5849.734693877551
2026-01-10 20:40:39.500,3441.081632653061,-1811.734693877551,349.7959183673469,4739.340425531915,5850.551020408163
2026-01-10 20:40:39.520,3481.265306122449,-1810.3877551020407,350.83673469387753,4739.893617021276,5851.367346938776
2026-01-10 20:40:39.540,3521.448979591837,-1809.0408163265306,351.8775510204082,4740.446808510638,5852.183673469388
2026-01-10 20:40:39.560,3561.6326530612246,-1807.6938775510205,352.9183673469388,4741.0,5853.0
2026-01-10 20:40:39.580,3601.816326530612,-1806.3469387755101,353.9591836734694,4740.307692307692,5853.25
2026-01-10 20:40:39.600,3642.0,-1805.0,355.0,4739.615384615385,5853.5
2026-01-10 20:40:39.620,3643.14,-1806.12,354.62,4738.923076923077,5853.75
2026-01-10 20:40:39.640,3644.28,-1807.24,354.24,4738.2307692307695,5854.0
2026-01-10 20:40:39.660,3645.42,-1808.36,353.86,4737.538461538462,5854.25
2026-01-10 20:40:39.680,3646.56,-1809.48,353.48,4736.846153846154,5854.5
2026-01-10 20:40:39.700,3647.7,-1810.6,353.1,4736.153846153846,5854.75
2026-01-10 20:40:39.720,3648.84,-1811.72,352.72,4735.461538461538,5855.0
2026-01-10 20:40:39.740,3649.98,-1812.84,352.34,4734.7692307692305,5855.25
2026-01-10 20:40:39.760,3651.12,-1813.96,351.96,4734.076923076923,5855.5
2026-01-10 20:40:39.780,3652.26,-1815.08,351.58,4733.384615384615,5855.75
2026-01-10 20:40:39.800,3653.4,-1816.2,351.2,4732.692307692308,5856.0
2026-01-10 20:40:39.820,3654.54,-1817.32,350.82,4732.0,5856.25
2026-01-10 20:40:39.840,3655.68,-1818.44,350.44,4731.307692307692,5856.5
2026-01-10 20:40:39.860,3656.82,-1819.56,350.06,4730.615384615385,5856.75
2026-01-10 20:40:39.880,3657.96,-1820.68,349.68,4729.923076923077,5857.0
2026-01-10 20:40:39.900,3659.1,-1821.8,349.3,4729.2307692307695,5857.25
2026-01-10 20:40:39.920,3660.24,-1822.92,348.92,4728.538461538462,5857.5
2026-01-10 20:40:39.940,3661.38,-1824.04,348.54,4727.846153846154,5857.75
2026-01-10 20:40:39.960,3662.52,-1825.16,348.16,4727.153846153846,5858.0
2026-01-10 20:40:39.980,3663.66,-1826.28,347.78,4726.461538461538,5858.25
2026-01-10 20:40:40.000,3664.8,-1827.4,347.4,4725.7692307692305,5858.5
2026-01-10 20:40:40.020,3665.94,-1828.52,347.02,4725.076923076923,5858.75
2026-01-10 20:40:40.040,3667.08,-1829.64,346.64,4724.384615384615,5859.0
2026-01-10 20:40:40.060,3668.22,-1830.76,346.26,4723.692307692308,5859.25
2026-01-10 20:40:40.080,3669.36,-1831.88,345.88,4723.0,5859.5
2026-01-10 20:40:40.100,3670.5,-1833.0,345.5,4722.307692307692,5859.75
2026-01-10 20:40:40.120,3671.64,-1834.12,345.12,4721.615384615385,5860.0
2026-01-10 20:40:40.140,3672.78,-1835.24,344.74,4720.923076923077,5860.25
2026-01-10 20:40:40.160,3673.92,-1836.36,344.36,4720.2307692307695,5860.5
2026-01-10 20:40:40.180,3675.06,-1837.48,343.98,4719.538461538462,5860.75
2026-01-10 20:40:40.200,3676.2,-1838.6,343.6,4718.846153846154,5861.0
2026-01-10 20:40:40.220,3677.34,-1839.72,343.22,4718.153846153846,5861.25
2026-01-10 20:40:40.240,3678.48,-1840.84,342.84,4717.461538461538,5861.5
2026-01-10 20:40:40.260,3679.62,-1841.96,342.46,4716.7692307692305,5861.75
2026-01-10 20:40:40.280,3680.76,-1843.08,342.08,4716.076923076923,5862.0
2026-01-10 20:40:40.300,3681.9,-1844.2,341.7,4715.384615384615,5862.25
2026-01-10 20:40:40.320,3683.04,-1845.32,341.32,4714.692307692308,5862.5
2026-01-10 20:40:40.340,3684.18,-1846.44,340.94,4714.0,5862.75
2026-01-10 20:40:40.360,3685.32,-1847.56,340.56,4713.307692307692,5863.0
2026-01-10 20:40:40.380,3686.46,-1848.68,340.18,4712.615384615385,5863.25
2026-01-10 20:40:40.400,3687.6,-1849.8,339.8,4711.923076923077,5863.5
2026-01-10 20:40:40.420,3688.74,-1850.92,339.42,4711.2307692307695,5863.75
2026-01-10 20:40:40.440,3689.88,-1852.04,339.04,4710.538461538462,5864.0
2026-01-10 20:40:40.460,3691.02,-1853.16,338.66,4709.846153846154,5864.25
2026-01-10 20:40:40.480,3692.16,-1854.28,338.28,4709.153846153846,5864.5
2026-01-10 20:40:40.500,3693.3,-1855.4,337.9,4708.461538461538,5864.75
2026-01-10 20:40:40.520,3694.44,-1856.52,337.52,4707.7692307692305,5865.0
2026-01-10 20:40:40.540,3695.58,-1857.64,337.14,4707.076923076923,5865.25
2026-01-10 20:40:40.560,3696.72,-1858.76,336.76,4706.384615384615,5865.5
2026-01-10 20:40:40.580,3697.86,-1859.88,336.38,4705.692307692308,5865.75
2026-01-10 20:40:40.600,3699.0,-1861.0,336.0,4705.0,5866.0
2026-01-10 20:40:40.620,3698.673469387755,-1861.857142857143,335.0816326530612,4705.489795918367,5868.122448979592
2026-01-10 20:40:40.640,3698.3469387755104,-1862.7142857142858,334.16326530612247,4705.9795918367345,5870.244897959184
2026-01-10 20:40:40.660,3698.0204081632655,-1863.5714285714287,333.2448979591837,4706.469387755102,5872.367346938776
2026-01-10 20:40:40.680,3697.6938775510203,-1864.4285714285713,332.3265306122449,4706.959183673469,5874.489795918367
2026-01-10 20:40:40.700,3697.3673469387754,-1865.2857142857142,331.40816326530614,4707.448979591837,5876.6122448979595
2026-01-10 20:40:40.720,3697.0408163265306,-1866.142857142857,330.48979591836735,4707.938775510204,5878.734693877551
2026-01-10 20:40:40.740,3696.714285714286,-1867.0,329.57142857142856,4708.428571428572,5880.857142857143
2026-01-10 20:40:40.760,3696.387755102041,-1867.857142857143,328.6530612244898,4708.918367346939,5882.9795918367345
2026-01-10 20:40:40.780,3696.061224489796,-1868.7142857142858,327.734693877551,4709.408163265306,5885.102040816327
2026-01-10 20:40:40.800,3695.734693877551,-1869.5714285714287,326.81632653061223,4709.897959183673,5887.224489795918
2026-01-10 20:40:40.820,3695.408163265306,-1870.4285714285713,325.8979591836735,4710.3877551020405,5889.34693877551
2026-01-10 20:40:40.840,3695.081632653061,-1871.2857142857142,324.9795918367347,4710.877551020408,5891.469387755102
2026-01-10 20:40:40.860,3694.7551020408164,-1872.142857142857,324.0612244897959,4711.367346938776,5893.591836734694
2026-01-10 20:40:40.880,3694.4285714285716,-1873.0,323.14285714285717,4711.857142857143,5895.714285714285
2026-01-10 20:40:40.900,3694.1020408163267,-1873.857142857143,322.2244897959184,4712.34693877551,5897.836734693878
2026-01-10 20:40:40.920,3693.7755102040815,-1874.7142857142858,321.3061224489796,4712.836734693878,5899.959183673469
2026-01-10 20:40:40.940,3693.4489795918366,-1875.5714285714287,320.38775510204084,4713.326530612245,5902.081632653061
2026-01-10 20:40:40.960,3693.122448979592,-1876.4285714285713,319.46938775510205,4713.816326530612,5904.2040816326535
2026-01-10 20:40:40.980,3692.795918367347,-1877.2857142857142,318.55102040816325,4714.306122448979,5906.326530612245
2026-01-10 20:40:41.000,3692.469387755102,-1878.142857142857,317.63265306122446,4714.7959183673465,5908.448979591837
2026-01-10 20:40:41.020,3692.1428571428573,-1879.0,316.7142857142857,4715.285714285715,5910.571428571428
2026-01-10 20:40:41.040,3691.816326530612,-1879.857142857143,315.7959183673469,4715.775510204082,5912.693877551021
2026-01-10 20:40:41.060,3691.4897959183672,-1880.7142857142858,314.8775510204082,4716.265306122449,5914.816326530612
2026-01-10 20:40:41.080,3691.1632653061224,-1881.5714285714287,313.9591836734694,4716.755102040816,5916.938775510204
2026-01-10 20:40:41.100,3690.8367346938776,-1882.4285714285713,313.0408163265306,4717.244897959184,5919.061224489796
2026-01-10 20:40:41.120,3690.5102040816328,-1883.2857142857142,312.1224489795918,4717.734693877551,5921.183673469388
2026-01-10 20:40:41.140,3690.183673469388,-1884.142857142857,311.2040816326531,4718.224489795918,5923.306122448979
2026-01-10 20:40:41.160,3689.8571428571427,-1885.0,310.2857142857143,4718.714285714285,5925.428571428572
2026-01-10 20:40:41.180,3689.530612244898,-1885.857142857143,309.3673469387755,4719.2040816326535,5927.551020408163
2026-01-10 20:40:41.200,3689.204081632653,-1886.7142857142858,308.44897959183675,4719.693877551021,5929.673469387755
2026-01-10 20:40:41.220,3688.877551020408,-1887.5714285714287,307.53061224489795,4720.183673469388,5931.7959183673465
2026-01-10 20:40:41.240,3688.5510204081634,-1888.4285714285713,306.61224489795916,4720.673469387755,5933.918367346939
2026-01-10 20:40:41.260,3688.2244897959185,-1889.2857142857142,305.6938775510204,4721.163265306122,5936.040816326531
2026-01-10 20:40:41.280,3687.8979591836733,-1890.142857142857,304.7755102040816,4721.65306122449,5938.163265306122
2026-01-10 20:40:41.300,3687.5714285714284,-1891.0,303.85714285714283,4722.142857142857,5940.285714285715
2026-01-10 20:40:41.320,3687.2448979591836,-1891.857142857143,302.9387755102041,4722.632653061224,5942.408163265306
2026-01-10 20:40:41.340,3686.918367346939,-1892.7142857142858,302.0204081632653,4723.122448979592,5944.530612244898
2026-01-10 20:40:41.360,3686.591836734694,-1893.5714285714287,301.1020408163265,4723.6122448979595,5946.65306122449
2026-01-10 20:40:41.380,3686.265306122449,-1894.4285714285713,300.18367346938777,4724.102040816327,5948.775510204082
2026-01-10 20:40:41.400,3685.938775510204,-1895.2857142857142,299.265306122449,4724.591836734694,5950.897959183673
2026-01-10 20:40:41.420,3685.612244897959,-1896.142857142857,298.3469387755102,4725.081632653061,5953.0204081632655
2026-01-10 20:40:41.440,3685.285714285714,-1897.0,297.42857142857144,4725.571428571428,5955.142857142857
2026-01-10 20:40:41.460,3684.9591836734694,-1897.857142857143,296.51020408163265,4726.061224489796,5957.265306122449
2026-01-10 20:40:41.480,3684.6326530612246,-1898.7142857142858,295.59183673469386,4726.551020408163,5959.3877551020405
2026-01-10 20:40:41.500,3684.3061224489797,-1899.5714285714287,294.6734693877551,4727.040816326531,5961.510204081633
2026-01-10 20:40:41.520,3683.9795918367345,-1900.4285714285713,293.7551020408163,4727.530612244898,5963.632653061224
2026-01-10 20:40:41.540,3683.6530612244896,-1901.2857142857142,292.83673469387753,4728.0204081632655,5965.755102040816
2026-01-10 20:40:41.560,3683.326530612245,-1902.142857142857,291.9183673469388,4728.510204081633,5967.877551020408
2026-01-10 20:40:41.580,3683.0,-1903.0,291.0,4729.0,5970.0
2026-01-10 20:40:41.600,3683.235294117647,-1902.1960784313726,291.1764705882353,4728.431372549019,5970.019607843137
2026-01-10 20:40:41.620,3683.470588235294,-1901.3921568627452,291.3529411764706,4727.862745098039,5970.0392156862745
2026-01-10 20:40:41.640,3683.705882352941,-1900.5882352941176,291.52941176470586,4727.294117647059,5970.058823529412
2026-01-10 20:40:41.660,3683.9411764705883,-1899.7843137254902,291.70588235294116,4726.725490196079,5970.078431372549
2026-01-10 20:40:41.680,3684.176470588235,-1898.9803921568628,291.88235294117646,4726.156862745098,5970.098039215686
2026-01-10 20:40:41.700,3684.4117647058824,-1898.1764705882354,292.05882352941177,4725.588235294118,5970.117647058823
2026-01-10 20:40:41.720,3684.6470588235293,-1897.3725490196077,292.2352941176471,4725.019607843137,5970.137254901961
2026-01-10 20:40:41.740,3684.8823529411766,-1896.5686274509803,292.4117647058824,4724.450980392156,5970.156862745098
2026-01-10 20:40:41.760,3685.1176470588234,-1895.764705882353,292.5882352941176,4723.882352941177,5970.176470588235
2026-01-10 20:40:41.780,3685.3529411764707,-1894.9607843137255,292.7647058823529,4723.313725490196,5970.196078431372
2026-01-10 20:40:41.800,3685.5882352941176,-1894.1568627450981,292.94117647058823,4722.745098039216,5970.21568627451
2026-01-10 20:40:41.820,3685.823529411765,-1893.3529411764705,293.11764705882354,4722.176470588235,5970.235294117647
2026-01-10 20:40:41.840,3686.0588235294117,-1892.549019607843,293.29411764705884,4721.607843137255,5970.254901960784
2026-01-10 20:40:41.860,3686.294117647059,-1891.7450980392157,293.47058823529414,4721.0392156862745,5970.274509803921
2026-01-10 20:40:41.880,3686.529411764706,-1890.9411764705883,293.6470588235294,4720.470588235294,5970.294117647059
2026-01-10 20:40:41.900,3686.764705882353,-1890.137254901961,293.8235294117647,4719.901960784314,5970.313725490196
2026-01-10 20:40:41.920,3687.0,-1889.3333333333333,294.0,4719.333333333333,5970.333333333333
2026-01-10 20:40:41.940,3687.235294117647,-1888.5294117647059,294.1764705882353,4718.764705882353,5970.35294117647
2026-01-10 20:40:41.960,3687.470588235294,-1887.7254901960785,294.3529411764706,4718.196078431372,5970.3725490196075
2026-01-10 20:40:41.980,3687.705882352941,-1886.921568627451,294.52941176470586,4717.6274509803925,5970.392156862745
2026-01-10 20:40:42.000,3687.9411764705883,-1886.1176470588234,294.70588235294116,4717.058823529412,5970.411764705882
2026-01-10 20:40:42.020,3688.176470588235,-1885.313725490196,294.88235294117646,4716.490196078431,5970.431372549019
2026-01-10 20:40:42.040,3688.4117647058824,-1884.5098039215686,295.05882352941177,4715.921568627451,5970.450980392156
2026-01-10 20:40:42.060,3688.6470588235293,-1883.7058823529412,295.2352941176471,4715.35294117647,5970.470588235294
2026-01-10 20:40:42.080,3688.8823529411766,-1882.9019607843138,295.4117647058824,4714.78431372549,5970.490196078431
2026-01-10 20:40:42.100,3689.1176470588234,-1882.0980392156862,295.5882352941176,4714.21568627451,5970.509803921569
2026-01-10 20:40:42.120,3689.3529411764707,-1881.2941176470588,295.7647058823529,4713.64705882353,5970.529411764706
2026-01-10 20:40:42.140,3689.5882352941176,-1880.4901960784314,295.94117647058823,4713.078431372549,5970.549019607844
2026-01-10 20:40:42.160,3689.823529411765,-1879.686274509804,296.11764705882354,4712.509803921569,5970.568627450981
2026-01-10 20:40:42.180,3690.0588235294117,-1878.8823529411766,296.29411764705884,4711.941176470588,5970.588235294118
2026-01-10 20:40:42.200,3690.294117647059,-1878.078431372549,296.47058823529414,4711.3725490196075,5970.607843137255
2026-01-10 20:40:42.220,3690.529411764706,-1877.2745098039215,296.6470588235294,4710.803921568628,5970.6274509803925
2026-01-10 20:40:42.240,3690.764705882353,-1876.4705882352941,296.8235294117647,4710.235294117647,5970.64705882353
2026-01-10 20:40:42.260,3691.0,-1875.6666666666667,297.0,4709.666666666667,5970.666666666667
2026-01-10 20:40:42.280,3691.235294117647,-1874.862745098039,297.1764705882353,4709.098039215686,5970.686274509804
2026-01-10 20:40:42.300,3691.470588235294,-1874.0588235294117,297.3529411764706,4708.529411764706,5970.705882352941
2026-01-10 20:40:42.320,3691.705882352941,-1873.2549019607843,297.52941176470586,4707.9607843137255,5970.725490196079
2026-01-10 20:40:42.340,3691.9411764705883,-1872.450980392157,297.70588235294116,4707.392156862745,5970.745098039216
2026-01-10 20:40:42.360,3692.176470588235,-1871.6470588235295,297.88235294117646,4706.823529411765,5970.764705882353
2026-01-10 20:40:42.380,3692.4117647058824,-1870.8431372549019,298.05882352941177,4706.254901960784,5970.78431372549
2026-01-10 20:40:42.400,3692.6470588235293,-1870.0392156862745,298.2352941176471,4705.686274509804,5970.803921568628
2026-01-10 20:40:42.420,3692.8823529411766,-1869.235294117647,298.4117647058824,4705.117647058823,5970.823529411765
2026-01-10 20:40:42.440,3693.1176470588234,-1868.4313725490197,298.5882352941176,4704.549019607844,5970.843137254902
2026-01-10 20:40:42.460,3693.3529411764707,-1867.627450980392,298.7647058823529,4703.980392156863,5970.862745098039
2026-01-10 20:40:42.480,3693.5882352941176,-1866.8235294117646,298.94117647058823,4703.411764705882,5970.882352941177
2026-01-10 20:40:42.500,3693.823529411765,-1866.0196078431372,299.11764705882354,4702.843137254902,5970.901960784314
2026-01-10 20:40:42.520,3694.0588235294117,-1865.2156862745098,299.29411764705884,4702.274509803921,5970.921568627451
2026-01-10 20:40:42.540,3694.294117647059,-1864.4117647058824,299.47058823529414,4701.705882352941,5970.941176470588
2026-01-10 20:40:42.560,3694.529411764706,-1863.6078431372548,299.6470588235294,4701.137254901961,5970.9607843137255
2026-01-10 20:40:42.580,3694.764705882353,-1862.8039215686274,299.8235294117647,4700.568627450981,5970.980392156863
2026-01-10 20:40:42.600,3695.0,-1862.0,300.0,4700.0,5971.0
2026-01-10 20:40:42.620,3655.44,-1823.3,301.12,4700.64,5971.78
2026-01-10 20:40:42.640,3615.88,-1784.6,302.24,4701.28,5972.56
2026-01-10 20:40:42.660,3576.32,-1745.9,303.36,4701.92,5973.34
2026-01-10 20:40:42.680,3536.76,-1707.2,304.48,4702.56,5974.12
2026-01-10 20:40:42.700,3497.2,-1668.5,305.6,4703.2,5974.9
2026-01-10 20:40:42.720,3457.64,-1629.8,306.72,4703.84,5975.68
2026-01-10 20:40:42.740,3418.08,-1591.1,307.84,4704.48,5976.46
2026-01-10 20:40:42.760,3378.52,-1552.4,308.96,4705.12,5977.24
2026-01-10 20:40:42.780,3338.96,-1513.7,310.08,4705.76,5978.02
2026-01-10 20:40:42.800,3299.4,-1475.0,311.2,4706.4,5978.8
2026-01-10 20:40:42.820,3259.84,-1436.3,312.32,4707.04,5979.58
2026-01-10 20:40:42.840,3220.2799999999997,-1397.6,313.44,4707.68,5980.36
2026-01-10 20:40:42.860,3180.7200000000003,-1358.9,314.56,4708.32,5981.14
2026-01-10 20:40:42.880,3141.16,-1320.1999999999998,315.68,4708.96,5981.92
2026-01-10 20:40:42.900,3101.6,-1281.5,316.8,4709.6,5982.7
2026-01-10 20:40:42.920,3062.04,-1242.8,317.92,4710.24,5983.48
2026-01-10 20:40:42.940,3022.48,-1204.1,319.04,4710.88,5984.26
2026-01-10 20:40:42.960,2982.92,-1165.4,320.16,4711.52,5985.04
2026-01-10 20:40:42.980,2943.3599999999997,-1126.6999999999998,321.28,4712.16,5985.82
2026-01-10 20:40:43.000,2903.8,-1088.0,322.4,4712.8,5986.6
2026-01-10 20:40:43.020,2864.24,-1049.3,323.52,4713.44,5987.38
2026-01-10 20:40:43.040,2824.68,-1010.5999999999999,324.64,4714.08,5988.16
2026-01-10 20:40:43.060,2785.12,-971.9,325.76,4714.72,5988.94
2026-01-10 20:40:43.080,2745.56,-933.1999999999999,326.88,4715.36,5989.72
2026-01-10 20:40:43.100,2706.0,-894.4999999999999,328.0,4716.0,5990.5
2026-01-10 20:40:43.120,2666.44,-855.8,329.12,4716.64,5991.28
2026-01-10 20:40:43.140,2626.88,-817.0999999999999,330.24,4717.28,5992.06
2026-01-10 20:40:43.160,2587.3199999999997,-778.3999999999999,331.36,4717.92,5992.84
2026-01-10 20:40:43.180,2547.76,-739.6999999999998,332.48,4718.56,5993.62
2026-01-10 20:40:43.200,2508.2,-701.0,333.6,4719.2,5994.4
2026-01-10 20:40:43.220,2468.64,-662.3,334.72,4719.84,5995.18
2026-01-10 20:40:43.240,2429.08,-623.5999999999999,335.84000000000003,4720.48,5995.96
2026-01-10 20:40:43.260,2389.52,-584.8999999999999,336.96,4721.12,5996.74
2026-01-10 20:40:43.280,2349.96,-546.1999999999998,338.08,4721.76,5997.52
2026-01-10 20:40:43.300,2310.3999999999996,-507.5,339.2,4722.4,5998.3
2026-01-10 20:40:43.320,2270.84,-468.79999999999995,340.32,4723.04,5999.08
2026-01-10 20:40:43.340,2231.2799999999997,-430.0999999999999,341.44,4723.68,5999.86
2026-01-10 20:40:43.360,2191.72,-391.39999999999986,342.56,4724.32,6000.64
2026-01-10 20:40:43.380,2152.16,-352.6999999999998,343.68,4724.96,6001.42
2026-01-10 20:40:43.400,2112.6,-314.0,344.8,4725.6,6002.2
2026-01-10 20:40:43.420,2073.04,-275.29999999999995,345.92,4726.24,6002.98
2026-01-10 20:40:43.440,2033.48,-236.5999999999999,347.04,4726.88,6003.76
2026-01-10 20:40:43.460,1993.9199999999998,-197.89999999999986,348.16,4727.52,6004.54
2026-01-10 20:40:43.480,1954.36,-159.19999999999982,349.28,4728.16,6005.32
2026-01-10 20:40:43.500,1914.8,-120.49999999999977,350.4,4728.8,6006.1
2026-01-10 20:40:43.520,1875.2399999999998,-81.79999999999995,351.52,4729.44,6006.88
2026-01-10 20:40:43.540,1835.6799999999998,-43.09999999999991,352.64,4730.08,6007.66
2026-01-10 20:40:43.560,1796.12,-4.399999999999864,353.76,4730.72,6008.44
2026-01-10 20:40:43.580,1756.56,34.30000000000018,354.88,4731.36,6009.22
2026-01-10 20:40:43.600,1717.0,73.0,356.0,4732.0,6010.0
2026-01-10 20:40:43.620,1753.0181818181818,37.654545454545456,316.78181818181815,4732.44,6010.5
2026-01-10 20:40:43.640,1789.0363636363636,2.309090909090912,277.56363636363636,4732.88,6011.0
2026-01-10 20:40:43.660,1825.0545454545454,-33.03636363636363,238.34545454545454,4733.32,6011.5
2026-01-10 20:40:43.680,1861.0727272727272,-68.38181818181818,199.12727272727273,4733.76,6012.0
2026-01-10 20:40:43.700,1897.090909090909,-103.72727272727272,159.9090909090909,4734.2,6012.5
2026-01-10 20:40:43.720,1933.1090909090908,-139.07272727272726,120.69090909090909,4734.64,6013.0
2026-01-10 20:40:43.740,1969.1272727272726,-174.4181818181818,81.4727272727273,4735.08,6013.5
2026-01-10 20:40:43.760,2005.1454545454544,-209.76363636363635,42.25454545454545,4735.52,6014.0
2026-01-10 20:40:43.780,2041.1636363636362,-245.10909090909092,3.0363636363636033,4735.96,6014.5
2026-01-10 20:40:43.800,2077.181818181818,-280.45454545454544,-36.18181818181819,4736.4,6015.0
2026-01-10 20:40:43.820,2113.2,-315.79999999999995,-75.39999999999998,4736.84,6015.5
2026-01-10 20:40:43.840,2149.2181818181816,-351.1454545454545,-114.61818181818182,4737.28,6016.0
2026-01-10 20:40:43.860,2185.2363636363634,-386.4909090909091,-153.83636363636367,4737.72,6016.5
2026-01-10 20:40:43.880,2221.254545454545,-421.8363636363636,-193.0545454545454,4738.16,6017.0
2026-01-10 20:40:43.900,2257.272727272727,-457.18181818181813,-232.27272727272725,4738.6,6017.5
2026-01-10 20:40:43.920,2293.290909090909,-492.5272727272727,-271.4909090909091,4739.04,6018.0
2026-01-10 20:40:43.940,2329.3090909090906,-527.8727272727273,-310.70909090909095,4739.48,6018.5
2026-01-10 20:40:43.960,2365.3272727272724,-563.2181818181818,-349.9272727272728,4739.92,6019.0
2026-01-10 20:40:43.980,2401.3454545454542,-598.5636363636363,-389.1454545454545,4740.36,6019.5
2026-01-10 20:40:44.000,2437.363636363636,-633.9090909090909,-428.3636363636364,4740.8,6020.0
2026-01-10 20:40:44.020,2473.3818181818183,-669.2545454545455,-467.5818181818182,4741.24,6020.5
2026-01-10 20:40:44.040,2509.4,-704.5999999999999,-506.79999999999995,4741.68,6021.0
2026-01-10 20:40:44.060,2545.418181818182,-739.9454545454545,-546.0181818181818,4742.12,6021.5
2026-01-10 20:40:44.080,2581.4363636363637,-775.290909090909,-585.2363636363636,4742.56,6022.0
2026-01-10 20:40:44.100,2617.4545454545455,-810.6363636363636,-624.4545454545455,4743.0,6022.5
2026-01-10 20:40:44.120,2653.4727272727273,-845.9818181818182,-663.6727272727273,4743.44,6023.0
2026-01-10 20:40:44.140,2689.490909090909,-881.3272727272727,-702.8909090909092,4743.88,6023.5
2026-01-10 20:40:44.160,2725.509090909091,-916.6727272727272,-742.1090909090908,4744.32,6024.0
2026-01-10 20:40:44.180,2761.5272727272727,-952.0181818181818,-781.3272727272727,4744.76,6024.5
2026-01-10 20:40:44.200,2797.5454545454545,-987.3636363636363,-820.5454545454545,4745.2,6025.0
2026-01-10 20:40:44.220,2833.5636363636363,-1022.709090909091,-859.7636363636364,4745.64,6025.5
2026-01-10 20:40:44.240,2869.581818181818,-1058.0545454545454,-898.9818181818182,4746.08,6026.0
2026-01-10 20:40:44.260,2905.6,-1093.3999999999999,-938.2,4746.52,6026.5
2026-01-10 20:40:44.280,2941.6181818181817,-1128.7454545454545,-977.4181818181819,4746.96,6027.0
2026-01-10 20:40:44.300,2977.6363636363635,-1164.090909090909,-1016.6363636363637,4747.4,6027.5
2026-01-10 20:40:44.320,3013.6545454545453,-1199.4363636363637,-1055.8545454545456,4747.84,6028.0
2026-01-10 20:40:44.340,3049.672727272727,-1234.7818181818182,-1095.0727272727272,4748.28,6028.5
2026-01-10 20:40:44.360,3085.690909090909,-1270.1272727272726,-1134.290909090909,4748.72,6029.0
2026-01-10 20:40:44.380,3121.7090909090907,-1305.4727272727273,-1173.509090909091,4749.16,6029.5
2026-01-10 20:40:44.400,3157.7272727272725,-1340.8181818181818,-1212.7272727272727,4749.6,6030.0
2026-01-10 20:40:44.420,3193.745454545455,-1376.1636363636362,-1251.9454545454546,4750.04,6030.5
2026-01-10 20:40:44.440,3229.7636363636366,-1411.509090909091,-1291.1636363636364,4750.48,6031.0
2026-01-10 20:40:44.460,3265.7818181818184,-1446.8545454545454,-1330.3818181818183,4750.92,6031.5
2026-01-10 20:40:44.480,3301.8,-1482.1999999999998,-1369.6,4751.36,6032.0
2026-01-10 20:40:44.500,3337.818181818182,-1517.5454545454545,-1408.8181818181818,4751.8,6032.5
2026-01-10 20:40:44.520,3373.836363636364,-1552.890909090909,-1448.0363636363636,4752.24,6033.0
2026-01-10 20:40:44.540,3409.8545454545456,-1588.2363636363636,-1487.2545454545455,4752.68,6033.5
2026-01-10 20:40:44.560,3445.8727272727274,-1623.581818181818,-1526.4727272727273,4753.12,6034.0
2026-01-10 20:40:44.580,3481.890909090909,-1658.9272727272726,-1565.6909090909091,4753.56,6034.5
2026-01-10 20:40:44.600,3517.909090909091,-1694.2727272727273,-1604.909090909091,4754.0,6035.0
2026-01-10 20:40:44.620,3553.927272727273,-1729.6181818181817,-1644.1272727272728,4753.981132075472,6034.924528301887
2026-01-10 20:40:44.640,3589.9454545454546,-1764.9636363636364,-1683.3454545454547,4753.962264150943,6034.8490566037735
2026-01-10 20:40:44.660,3625.9636363636364,-1800.3090909090909,-1722.5636363636363,4753.943396226415,6034.773584905661
2026-01-10 20:40:44.680,3661.981818181818,-1835.6545454545453,-1761.7818181818184,4753.924528301887,6034.698113207547
2026-01-10 20:40:44.700,3698.0,-1871.0,-1801.0,4753.905660377359,6034.622641509434
2026-01-10 20:40:44.720,3702.2916666666665,-1831.8541666666667,-1801.75,4753.88679245283,6034.547169811321
2026-01-10 20:40:44.740,3706.5833333333335,-1792.7083333333333,-1802.5,4753.867924528302,6034.471698113208
2026-01-10 20:40:44.760,3710.875,-1753.5625,-1803.25,4753.8490566037735,6034.396226415094
2026-01-10 20:40:44.780,3715.1666666666665,-1714.4166666666667,-1804.0,4753.830188679245,6034.320754716981
2026-01-10 20:40:44.800,3719.4583333333335,-1675.2708333333333,-1804.75,4753.811320754717,6034.245283018868
2026-01-10 20:40:44.820,3723.75,-1636.125,-1805.5,4753.792452830188,6034.169811320755
2026-01-10 20:40:44.840,3728.0416666666665,-1596.9791666666665,-1806.25,4753.773584905661,6034.094339622641
2026-01-10 20:40:44.860,3732.3333333333335,-1557.8333333333333,-1807.0,4753.754716981132,6034.018867924528
2026-01-10 20:40:44.880,3736.625,-1518.6875,-1807.75,4753.735849056604,6033.943396226415
2026-01-10 20:40:44.900,3740.9166666666665,-1479.5416666666665,-1808.5,4753.7169811320755,6033.867924528302
2026-01-10 20:40:44.920,3745.2083333333335,-1440.3958333333333,-1809.25,4753.698113207547,6033.792452830188
2026-01-10 20:40:44.940,3749.5,-1401.25,-1810.0,4753.679245283019,6033.7169811320755
2026-01-10 20:40:44.960,3753.7916666666665,-1362.1041666666665,-1810.75,4753.66037735849,6033.641509433963
2026-01-10 20:40:44.980,3758.0833333333335,-1322.9583333333333,-1811.5,4753.641509433963,6033.566037735849
2026-01-10 20:40:45.000,3762.375,-1283.8125,-1812.25,4753.622641509434,6033.490566037736
2026-01-10 20:40:45.020,3766.6666666666665,-1244.6666666666665,-1813.0,4753.603773584906,6033.415094339623
2026-01-10 20:40:45.040,3770.9583333333335,-1205.5208333333333,-1813.75,4753.584905660377,6033.33962264151
2026-01-10 20:40:45.060,3775.25,-1166.375,-1814.5,4753.566037735849,6033.264150943396
2026-01-10 20:40:45.080,3779.5416666666665,-1127.2291666666665,-1815.25,4753.547169811321,6033.188679245283
2026-01-10 20:40:45.100,3783.8333333333335,-1088.0833333333333,-1816.0,4753.528301886792,6033.11320754717
2026-01-10 20:40:45.120,3788.125,-1048.9375,-1816.75,4753.509433962264,6033.037735849057
2026-01-10 20:40:45.140,3792.4166666666665,-1009.7916666666666,-1817.5,4753.490566037736,6032.962264150943
2026-01-10 20:40:45.160,3796.7083333333335,-970.6458333333333,-1818.25,4753.471698113208,6032.88679245283
2026-01-10 20:40:45.180,3801.0,-931.5,-1819.0,4753.452830188679,6032.811320754717
2026-01-10 20:40:45.200,3805.2916666666665,-892.3541666666666,-1819.75,4753.433962264151,6032.735849056604
2026-01-10 20:40:45.220,3809.5833333333335,-853.2083333333333,-1820.5,4753.415094339623,6032.66037735849
2026-01-10 20:40:45.240,3813.875,-814.0625,-1821.25,4753.396226415094,6032.584905660377
2026-01-10 20:40:45.260,3818.1666666666665,-774.9166666666665,-1822.0,4753.377358490566,6032.509433962264
2026-01-10 20:40:45.280,3822.4583333333335,-735.7708333333333,-1822.75,4753.358490566037,6032.433962264151
2026-01-10 20:40:45.300,3826.75,-696.625,-1823.5,4753.33962264151,6032.358490566037
2026-01-10 20:40:45.320,3831.0416666666665,-657.4791666666665,-1824.25,4753.320754716981,6032.2830188679245
2026-01-10 20:40:45.340,3835.3333333333335,-618.3333333333333,-1825.0,4753.301886792453,6032.207547169812
2026-01-10 20:40:45.360,3839.625,-579.1875,-1825.75,4753.2830188679245,6032.132075471698
2026-01-10 20:40:45.380,3843.9166666666665,-540.0416666666665,-1826.5,4753.264150943396,6032.056603773585
2026-01-10 20:40:45.400,3848.2083333333335,-500.89583333333326,-1827.25,4753.245283018868,6031.981132075472
2026-01-10 20:40:45.420,3852.5,-461.75,-1828.0,4753.226415094339,6031.905660377359
2026-01-10 20:40:45.440,3856.7916666666665,-422.6041666666665,-1828.75,4753.207547169812,6031.830188679245
2026-01-10 20:40:45.460,3861.0833333333335,-383.45833333333326,-1829.5,4753.188679245283,6031.754716981132
2026-01-10 20:40:45.480,3865.375,-344.3125,-1830.25,4753.169811320755,6031.679245283019
2026-01-10 20:40:45.500,3869.6666666666665,-305.1666666666665,-1831.0,4753.1509433962265,6031.603773584906
2026-01-10 20:40:45.520,3873.9583333333335,-266.02083333333326,-1831.75,4753.132075471698,6031.528301886792
2026-01-10 20:40:45.540,3878.25,-226.875,-1832.5,4753.11320754717,6031.452830188679
2026-01-10 20:40:45.560,3882.5416666666665,-187.72916666666652,-1833.25,4753.094339622641,6031.377358490566
2026-01-10 20:40:45.580,3886.8333333333335,-148.58333333333326,-1834.0,4753.075471698113,6031.301886792453
2026-01-10 20:40:45.600,3891.125,-109.4375,-1834.75,4753.056603773585,6031.226415094339
2026-01-10 20:40:45.620,3895.4166666666665,-70.29166666666652,-1835.5,4753.037735849057,6031.1509433962265
2026-01-10 20:40:45.640,3899.7083333333335,-31.145833333333258,-1836.25,4753.018867924528,6031.075471698113
2026-01-10 20:40:45.660,3904.0,8.0,-1837.0,4753.0,6031.0
2026-01-10 20:40:45.680,3898.9791666666665,-31.041666666666664,-1793.3333333333333,4753.333333333333,6030.666666666667
2026-01-10 20:40:45.700,3893.9583333333335,-70.08333333333333,-1749.6666666666667,4753.666666666667,6030.333333333333
2026-01-10 20:40:45.720,3888.9375,-109.125,-1706.0,4754.0,6030.0
2026-01-10 20:40:45.740,3883.9166666666665,-148.16666666666666,-1662.3333333333333,4754.333333333333,6029.666666666667
2026-01-10 20:40:45.760,3878.8958333333335,-187.20833333333331,-1618.6666666666667,4754.666666666667,6029.333333333333
2026-01-10 20:40:45.780,3873.875,-226.25,-1575.0,4755.0,6029.0
2026-01-10 20:40:45.800,3868.8541666666665,-265.29166666666663,-1531.3333333333335,4755.333333333333,6028.666666666667
2026-01-10 20:40:45.820,3863.8333333333335,-304.3333333333333,-1487.6666666666667,4755.666666666667,6028.333333333333
2026-01-10 20:40:45.840,3858.8125,-343.375,-1444.0,4756.0,6028.0
2026-01-10 20:40:45.860,3853.7916666666665,-382.41666666666663,-1400.3333333333335,4756.333333333333,6027.666666666667
2026-01-10 20:40:45.880,3848.7708333333335,-421.4583333333333,-1356.6666666666667,4756.666666666667,6027.333333333333
2026-01-10 20:40:45.900,3843.75,-460.5,-1313.0,4757.0,6027.0
2026-01-10 20:40:45.920,3838.7291666666665,-499.54166666666663,-1269.3333333333335,4757.333333333333,6026.666666666667
2026-01-10 20:40:45.940,3833.7083333333335,-538.5833333333333,-1225.6666666666667,4757.666666666667,6026.333333333333
2026-01-10 20:40:45.960,3828.6875,-577.625,-1182.0,4758.0,6026.0
2026-01-10 20:40:45.980,3823.6666666666665,-616.6666666666666,-1138.3333333333335,4758.333333333333,6025.666666666667
2026-01-10 20:40:46.000,3818.6458333333335,-655.7083333333333,-1094.6666666666667,4758.666666666667,6025.333333333333
2026-01-10 20:40:46.020,3813.625,-694.75,-1051.0,4759.0,6025.0
2026-01-10 20:40:46.040,3808.6041666666665,-733.7916666666666,-1007.3333333333334,4759.333333333333,6024.666666666667
2026-01-10 20:40:46.060,3803.5833333333335,-772.8333333333333,-963.6666666666667,4759.666666666667,6024.333333333333
2026-01-10 20:40:46.080,3798.5625,-811.875,-920.0,4760.0,6024.0
2026-01-10 20:40:46.100,3793.5416666666665,-850.9166666666666,-876.3333333333334,4760.333333333333,6023.666666666667
2026-01-10 20:40:46.120,3788.5208333333335,-889.9583333333333,-832.6666666666667,4760.666666666667,6023.333333333333
2026-01-10 20:40:46.140,3783.5,-929.0,-789.0,4761.0,6023.0
2026-01-10 20:40:46.160,3778.4791666666665,-968.0416666666666,-745.3333333333335,4761.333333333333,6022.666666666667
2026-01-10 20:40:46.180,3773.4583333333335,-1007.0833333333333,-701.6666666666667,4761.666666666667,6022.333333333333
2026-01-10 20:40:46.200,3768.4375,-1046.125,-658.0,4762.0,6022.0
2026-01-10 20:40:46.220,3763.4166666666665,-1085.1666666666665,-614.3333333333335,4762.333333333333,6021.666666666667
2026-01-10 20:40:46.240,3758.3958333333335,-1124.2083333333333,-570.6666666666667,4762.666666666667,6021.333333333333
2026-01-10 20:40:46.260,3753.375,-1163.25,-527.0,4763.0,6021.0
2026-01-10 20:40:46.280,3748.3541666666665,-1202.2916666666665,-483.3333333333335,4763.333333333333,6020.666666666667
2026-01-10 20:40:46.300,3743.3333333333335,-1241.3333333333333,-439.66666666666674,4763.666666666667,6020.333333333333
2026-01-10 20:40:46.320,3738.3125,-1280.375,-396.0,4764.0,6020.0
2026-01-10 20:40:46.340,3733.2916666666665,-1319.4166666666665,-352.3333333333335,4764.333333333333,6019.666666666667
2026-01-10 20:40:46.360,3728.2708333333335,-1358.4583333333333,-308.66666666666674,4764.666666666667,6019.333333333333
2026-01-10 20:40:46.380,3723.25,-1397.5,-265.0,4765.0,6019.0
2026-01-10 20:40:46.400,3718.2291666666665,-1436.5416666666665,-221.33333333333348,4765.333333333333,6018.666666666667
2026-01-10 20:40:46.420,3713.2083333333335,-1475.5833333333333,-177.66666666666674,4765.666666666667,6018.333333333333
2026-01-10 20:40:46.440,3708.1875,-1514.625,-134.0,4766.0,6018.0
2026-01-10 20:40:46.460,3703.1666666666665,-1553.6666666666665,-90.33333333333348,4766.333333333333,6017.666666666667
2026-01-10 20:40:46.480,3698.1458333333335,-1592.7083333333333,-46.66666666666674,4766.666666666667,6017.333333333333
2026-01-10 20:40:46.500,3693.125,-1631.75,-3.0,4767.0,6017.0
2026-01-10 20:40:46.520,3688.1041666666665,-1670.7916666666665,40.666666666666515,4767.333333333333,6016.666666666667
2026-01-10 20:40:46.540,3683.0833333333335,-1709.8333333333333,84.33333333333326,4767.666666666667,6016.333333333333
2026-01-10 20:40:46.560,3678.0625,-1748.875,128.0,4768.0,6016.0
2026-01-10 20:40:46.580,3673.0416666666665,-1787.9166666666665,171.66666666666652,4768.333333333333,6015.666666666667
2026-01-10 20:40:46.600,3668.0208333333335,-1826.9583333333333,215.33333333333303,4768.666666666667,6015.333333333333
2026-01-10 20:40:46.620,3663.0,-1866.0,259.0,4769.0,6015.0
2026-01-10 20:40:46.640,3621.7916666666665,-1825.0416666666667,260.3541666666667,4768.395833333333,6014.833333333333
2026-01-10 20:40:46.660,3580.5833333333335,-1784.0833333333333,261.7083333333333,4767.791666666667,6014.666666666667
2026-01-10 20:40:46.680,3539.375,-1743.125,263.0625,4767.1875,6014.5
2026-01-10 20:40:46.700,3498.1666666666665,-1702.1666666666667,264.4166666666667,4766.583333333333,6014.333333333333
2026-01-10 20:40:46.720,3456.9583333333335,-1661.2083333333333,265.7708333333333,4765.979166666667,6014.166666666667
2026-01-10 20:40:46.740,3415.75,-1620.25,267.125,4765.375,6014.0
2026-01-10 20:40:46.760,3374.5416666666665,-1579.2916666666665,268.4791666666667,4764.770833333333,6013.833333333333
2026-01-10 20:40:46.780,3333.3333333333335,-1538.3333333333333,269.8333333333333,4764.166666666667,6013.666666666667
2026-01-10 20:40:46.800,3292.125,-1497.375,271.1875,4763.5625,6013.5
2026-01-10 20:40:46.820,3250.9166666666665,-1456.4166666666665,272.5416666666667,4762.958333333333,6013.333333333333
2026-01-10 20:40:46.840,3209.7083333333335,-1415.4583333333333,273.8958333333333,4762.354166666667,6013.166666666667
2026-01-10 20:40:46.860,3168.5,-1374.5,275.25,4761.75,6013.0
2026-01-10 20:40:46.880,3127.2916666666665,-1333.5416666666665,276.6041666666667,4761.145833333333,6012.833333333333
2026-01-10 20:40:46.900,3086.083333333333,-1292.5833333333333,277.9583333333333,4760.541666666667,6012.666666666667
2026-01-10 20:40:46.920,3044.875,-1251.625,279.3125,4759.9375,6012.5
2026-01-10 20:40:46.940,3003.6666666666665,-1210.6666666666665,280.6666666666667,4759.333333333333,6012.333333333333
2026-01-10 20:40:46.960,2962.458333333333,-1169.7083333333333,282.0208333333333,4758.729166666667,6012.166666666667
2026-01-10 20:40:46.980,2921.25,-1128.75,283.375,4758.125,6012.0
2026-01-10 20:40:47.000,2880.0416666666665,-1087.7916666666665,284.7291666666667,4757.520833333333,6011.833333333333
2026-01-10 20:40:47.020,2838.833333333333,-1046.8333333333333,286.0833333333333,4756.916666666667,6011.666666666667
2026-01-10 20:40:47.040,2797.625,-1005.875,287.4375,4756.3125,6011.5
2026-01-10 20:40:47.060,2756.4166666666665,-964.9166666666666,288.7916666666667,4755.708333333333,6011.333333333333
2026-01-10 20:40:47.080,2715.208333333333,-923.9583333333333,290.1458333333333,4755.104166666667,6011.166666666667
2026-01-10 20:40:47.100,2674.0,-883.0,291.5,4754.5,6011.0
2026-01-10 20:40:47.120,2632.7916666666665,-842.0416666666666,292.8541666666667,4753.895833333333,6010.833333333333
2026-01-10 20:40:47.140,2591.583333333333,-801.0833333333333,294.2083333333333,4753.291666666667,6010.666666666667
2026-01-10 20:40:47.160,2550.375,-760.125,295.5625,4752.6875,6010.5
2026-01-10 20:40:47.180,2509.1666666666665,-719.1666666666665,296.9166666666667,4752.083333333333,6010.333333333333
2026-01-10 20:40:47.200,2467.958333333333,-678.2083333333333,298.2708333333333,4751.479166666667,6010.166666666667
2026-01-10 20:40:47.220,2426.75,-637.25,299.625,4750.875,6010.0
2026-01-10 20:40:47.240,2385.5416666666665,-596.2916666666665,300.9791666666667,4750.270833333333,6009.833333333333
2026-01-10 20:40:47.260,2344.333333333333,-555.3333333333333,302.3333333333333,4749.666666666667,6009.666666666667
2026-01-10 20:40:47.280,2303.125,-514.375,303.6875,4749.0625,6009.5
2026-01-10 20:40:47.300,2261.9166666666665,-473.4166666666665,305.0416666666667,4748.458333333333,6009.333333333333
2026-01-10 20:40:47.320,2220.708333333333,-432.45833333333326,306.3958333333333,4747.854166666667,6009.166666666667
2026-01-10 20:40:47.340,2179.5,-391.5,307.75,4747.25,6009.0
2026-01-10 20:40:47.360,2138.2916666666665,-350.5416666666665,309.1041666666667,4746.645833333333,6008.833333333333
2026-01-10 20:40:47.380,2097.083333333333,-309.58333333333326,310.4583333333333,4746.041666666667,6008.666666666667
2026-01-10 20:40:47.400,2055.875,-268.625,311.8125,4745.4375,6008.5
2026-01-10 20:40:47.420,2014.6666666666665,-227.66666666666652,313.1666666666667,4744.833333333333,6008.333333333333
2026-01-10 20:40:47.440,1973.4583333333333,-186.70833333333326,314.5208333333333,4744.229166666667,6008.166666666667
2026-01-10 20:40:47.460,1932.25,-145.75,315.875,4743.625,6008.0
2026-01-10 20:40:47.480,1891.0416666666665,-104.79166666666652,317.2291666666667,4743.020833333333,6007.833333333333
2026-01-10 20:40:47.500,1849.8333333333333,-63.83333333333326,318.5833333333333,4742.416666666667,6007.666666666667
2026-01-10 20:40:47.520,1808.625,-22.875,319.9375,4741.8125,6007.5
2026-01-10 20:40:47.540,1767.4166666666665,18.083333333333485,321.2916666666667,4741.208333333333,6007.333333333333
2026-01-10 20:40:47.560,1726.2083333333333,59.04166666666674,322.6458333333333,4740.604166666667,6007.166666666667
2026-01-10 20:40:47.580,1685.0,100.0,324.0,4740.0,6007.0
2026-01-10 20:40:47.600,1685.0185185185185,63.148148148148145,324.4074074074074,4740.407407407408,6007.277777777777
2026-01-10 20:40:47.620,1685.037037037037,26.29629629629629,324.81481481481484,4740.814814814815,6007.555555555556
2026-01-10 20:40:47.640,1685.0555555555557,-10.555555555555571,325.22222222222223,4741.222222222223,6007.833333333333
2026-01-10 20:40:47.660,1685.0740740740741,-47.40740740740742,325.6296296296296,4741.62962962963,6008.111111111111
2026-01-10 20:40:47.680,1685.0925925925926,-84.25925925925927,326.037037037037,4742.037037037037,6008.388888888889
2026-01-10 20:40:47.700,1685.111111111111,-121.11111111111114,326.44444444444446,4742.444444444444,6008.666666666667
2026-01-10 20:40:47.720,1685.1296296296296,-157.962962962963,326.85185185185185,4742.851851851852,6008.944444444444
2026-01-10 20:40:47.740,1685.148148148148,-194.81481481481484,327.25925925925924,4743.259259259259,6009.222222222223
2026-01-10 20:40:47.760,1685.1666666666667,-231.66666666666669,327.6666666666667,4743.666666666667,6009.5
2026-01-10 20:40:47.780,1685.1851851851852,-268.51851851851853,328.0740740740741,4744.074074074074,6009.777777777777
2026-01-10 20:40:47.800,1685.2037037037037,-305.3703703703704,328.48148148148147,4744.481481481482,6010.055555555556
2026-01-10 20:40:47.820,1685.2222222222222,-342.2222222222223,328.8888888888889,4744.888888888889,6010.333333333333
2026-01-10 20:40:47.840,1685.2407407407406,-379.07407407407413,329.2962962962963,4745.2962962962965,6010.611111111111
2026-01-10 20:40:47.860,1685.2592592592594,-415.925925925926,329.7037037037037,4745.7037037037035,6010.888888888889
2026-01-10 20:40:47.880,1685.2777777777778,-452.7777777777778,330.1111111111111,4746.111111111111,6011.166666666667
2026-01-10 20:40:47.900,1685.2962962962963,-489.6296296296297,330.51851851851853,4746.518518518518,6011.444444444444
2026-01-10 20:40:47.920,1685.3148148148148,-526.4814814814815,330.9259259259259,4746.925925925926,6011.722222222223
2026-01-10 20:40:47.940,1685.3333333333333,-563.3333333333334,331.3333333333333,4747.333333333333,6012.0
2026-01-10 20:40:47.960,1685.351851851852,-600.1851851851852,331.74074074074076,4747.740740740741,6012.277777777777
2026-01-10 20:40:47.980,1685.3703703703704,-637.0370370370371,332.14814814814815,4748.148148148148,6012.555555555556
2026-01-10 20:40:48.000,1685.388888888889,-673.8888888888889,332.55555555555554,4748.555555555556,6012.833333333333
2026-01-10 20:40:48.020,1685.4074074074074,-710.7407407407408,332.96296296296293,4748.962962962963,6013.111111111111
2026-01-10 20:40:48.040,1685.4259259259259,-747.5925925925926,333.3703703703704,4749.37037037037,6013.388888888889
2026-01-10 20:40:48.060,1685.4444444444443,-784.4444444444446,333.77777777777777,4749.777777777777,6013.666666666667
2026-01-10 20:40:48.080,1685.462962962963,-821.2962962962964,334.18518518518516,4750.185185185185,6013.944444444444
2026-01-10 20:40:48.100,1685.4814814814815,-858.1481481481483,334.5925925925926,4750.592592592592,6014.222222222223
2026-01-10 20:40:48.120,1685.5,-895.0000000000001,335.0,4751.0,6014.5
2026-01-10 20:40:48.140,1685.5185185185185,-931.851851851852,335.4074074074074,4751.407407407408,6014.777777777777
2026-01-10 20:40:48.160,1685.537037037037,-968.7037037037037,335.81481481481484,4751.814814814815,6015.055555555556
2026-01-10 20:40:48.180,1685.5555555555557,-1005.5555555555557,336.22222222222223,4752.222222222223,6015.333333333333
2026-01-10 20:40:48.200,1685.5740740740741,-1042.4074074074074,336.6296296296296,4752.62962962963,6015.611111111111
2026-01-10 20:40:48.220,1685.5925925925926,-1079.2592592592594,337.037037037037,4753.037037037037,6015.888888888889
2026-01-10 20:40:48.240,1685.611111111111,-1116.1111111111113,337.44444444444446,4753.444444444444,6016.166666666667
2026-01-10 20:40:48.260,1685.6296296296296,-1152.962962962963,337.85185185185185,4753.851851851852,6016.444444444444
2026-01-10 20:40:48.280,1685.648148148148,-1189.814814814815,338.25925925925924,4754.259259259259,6016.722222222223
2026-01-10 20:40:48.300,1685.6666666666667,-1226.6666666666667,338.6666666666667,4754.666666666667,6017.0
2026-01-10 20:40:48.320,1685.6851851851852,-1263.5185185185187,339.0740740740741,4755.074074074074,6017.277777777777
2026-01-10 20:40:48.340,1685.7037037037037,-1300.3703703703704,339.48148148148147,4755.481481481482,6017.555555555556
2026-01-10 20:40:48.360,1685.7222222222222,-1337.2222222222224,339.8888888888889,4755.888888888889,6017.833333333333
2026-01-10 20:40:48.380,1685.7407407407406,-1374.0740740740741,340.2962962962963,4756.2962962962965,6018.111111111111
2026-01-10 20:40:48.400,1685.7592592592594,-1410.925925925926,340.7037037037037,4756.7037037037035,6018.388888888889
2026-01-10 20:40:48.420,1685.7777777777778,-1447.7777777777778,341.1111111111111,4757.111111111111,6018.666666666667
2026-01-10 20:40:48.440,1685.7962962962963,-1484.6296296296298,341.51851851851853,4757.518518518518,6018.944444444444
2026-01-10 20:40:48.460,1685.8148148148148,-1521.4814814814815,341.9259259259259,4757.925925925926,6019.222222222223
2026-01-10 20:40:48.480,1685.8333333333333,-1558.3333333333335,342.3333333333333,4758.333333333333,6019.5
2026-01-10 20:40:48.500,1685.851851851852,-1595.1851851851852,342.74074074074076,4758.740740740741,6019.777777777777
2026-01-10 20:40:48.520,1685.8703703703704,-1632.0370370370372,343.14814814814815,4759.148148148148,6020.055555555556
2026-01-10 20:40:48.540,1685.888888888889,-1668.8888888888891,343.55555555555554,4759.555555555556,6020.333333333333
2026-01-10 20:40:48.560,1685.9074074074074,-1705.7407407407409,343.96296296296293,4759.962962962963,6020.611111111111
2026-01-10 20:40:48.580,1685.9259259259259,-1742.5925925925928,344.3703703703704,4760.37037037037,6020.888888888889
2026-01-10 20:40:48.600,1685.9444444444443,-1779.4444444444446,344.77777777777777,4760.777777777777,6021.166666666667
2026-01-10 20:40:48.620,1685.962962962963,-1816.2962962962965,345.18518518518516,4761.185185185185,6021.444444444444
2026-01-10 20:40:48.640,1685.9814814814815,-1853.1481481481483,345.5925925925926,4761.592592592592,6021.722222222223
2026-01-10 20:40:48.660,1686.0,-1890.0,346.0,4762.0,6022.0
2026-01-10 20:40:48.680,1686.6122448979593,-1890.5102040816328,338.9591836734694,4762.183673469388,6022.224489795918
2026-01-10 20:40:48.700,1687.2244897959183,-1891.0204081632653,331.9183673469388,4762.367346938776,6022.448979591837
2026-01-10 20:40:48.720,1687.8367346938776,-1891.530612244898,324.8775510204082,4762.551020408163,6022.673469387755
2026-01-10 20:40:48.740,1688.4489795918366,-1892.0408163265306,317.83673469387753,4762.734693877551,6022.897959183673
2026-01-10 20:40:48.760,1689.061224489796,-1892.5510204081634,310.7959183673469,4762.918367346939,6023.122448979592
2026-01-10 20:40:48.780,1689.6734693877552,-1893.061224489796,303.7551020408163,4763.102040816327,6023.34693877551
2026-01-10 20:40:48.800,1690.2857142857142,-1893.5714285714287,296.7142857142857,4763.285714285715,6023.571428571428
2026-01-10 20:40:48.820,1690.8979591836735,-1894.0816326530612,289.6734693877551,4763.469387755102,6023.7959183673465
2026-01-10 20:40:48.840,1691.5102040816328,-1894.591836734694,282.6326530612245,4763.65306122449,6024.0204081632655
2026-01-10 20:40:48.860,1692.1224489795918,-1895.1020408163265,275.59183673469386,4763.836734693878,6024.244897959184
2026-01-10 20:40:48.880,1692.734693877551,-1895.6122448979593,268.55102040816325,4764.0204081632655,6024.469387755102
2026-01-10 20:40:48.900,1693.3469387755101,-1896.1224489795918,261.51020408163265,4764.2040816326535,6024.693877551021
2026-01-10 20:40:48.920,1693.9591836734694,-1896.6326530612246,254.46938775510205,4764.3877551020405,6024.918367346939
2026-01-10 20:40:48.940,1694.5714285714287,-1897.142857142857,247.42857142857144,4764.571428571428,6025.142857142857
2026-01-10 20:40:48.960,1695.1836734693877,-1897.6530612244899,240.38775510204084,4764.755102040816,6025.367346938776
2026-01-10 20:40:48.980,1695.795918367347,-1898.1632653061224,233.3469387755102,4764.938775510204,6025.591836734694
2026-01-10 20:40:49.000,1696.408163265306,-1898.6734693877552,226.30612244897958,4765.122448979592,6025.816326530612
2026-01-10 20:40:49.020,1697.0204081632653,-1899.1836734693877,219.26530612244898,4765.306122448979,6026.040816326531
2026-01-10 20:40:49.040,1697.6326530612246,-1899.6938775510205,212.22448979591837,4765.489795918367,6026.265306122449
2026-01-10 20:40:49.060,1698.2448979591836,-1900.204081632653,205.18367346938777,4765.673469387755,6026.489795918367
2026-01-10 20:40:49.080,1698.857142857143,-1900.7142857142858,198.14285714285714,4765.857142857143,6026.714285714285
2026-01-10 20:40:49.100,1699.469387755102,-1901.2244897959183,191.10204081632654,4766.040816326531,6026.938775510204
2026-01-10 20:40:49.120,1700.0816326530612,-1901.734693877551,184.06122448979593,4766.224489795918,6027.163265306122
2026-01-10 20:40:49.140,1700.6938775510205,-1902.2448979591836,177.0204081632653,4766.408163265306,6027.3877551020405
2026-01-10 20:40:49.160,1701.3061224489795,-1902.7551020408164,169.9795918367347,4766.591836734694,6027.6122448979595
2026-01-10 20:40:49.180,1701.9183673469388,-1903.265306122449,162.9387755102041,4766.775510204082,6027.836734693878
2026-01-10 20:40:49.200,1702.530612244898,-1903.7755102040817,155.8979591836735,4766.959183673469,6028.061224489796
2026-01-10 20:40:49.220,1703.142857142857,-1904.2857142857142,148.85714285714286,4767.142857142857,6028.285714285715
2026-01-10 20:40:49.240,1703.7551020408164,-1904.795918367347,141.81632653061226,4767.326530612245,6028.510204081633
2026-01-10 20:40:49.260,1704.3673469387754,-1905.3061224489795,134.77551020408166,4767.510204081633,6028.734693877551
2026-01-10 20:40:49.280,1704.9795918367347,-1905.8163265306123,127.73469387755102,4767.693877551021,6028.959183673469
2026-01-10 20:40:49.300,1705.591836734694,-1906.3265306122448,120.69387755102042,4767.877551020408,6029.183673469388
2026-01-10 20:40:49.320,1706.204081632653,-1906.8367346938776,113.65306122448982,4768.061224489796,6029.408163265306
2026-01-10 20:40:49.340,1706.8163265306123,-1907.3469387755101,106.61224489795919,4768.244897959184,6029.632653061224
2026-01-10 20:40:49.360,1707.4285714285713,-1907.857142857143,99.57142857142858,4768.428571428572,6029.857142857143
2026-01-10 20:40:49.380,1708.0408163265306,-1908.3673469387754,92.53061224489798,4768.6122448979595,6030.081632653061
2026-01-10 20:40:49.400,1708.6530612244899,-1908.8775510204082,85.48979591836735,4768.7959183673465,6030.306122448979
2026-01-10 20:40:49.420,1709.265306122449,-1909.3877551020407,78.44897959183675,4768.9795918367345,6030.530612244898
2026-01-10 20:40:49.440,1709.8775510204082,-1909.8979591836735,71.40816326530614,4769.163265306122,6030.755102040816
2026-01-10 20:40:49.460,1710.4897959183672,-1910.408163265306,64.36734693877554,4769.34693877551,6030.9795918367345
2026-01-10 20:40:49.480,1711.1020408163265,-1910.9183673469388,57.32653061224494,4769.530612244898,6031.2040816326535
2026-01-10 20:40:49.500,1711.7142857142858,-1911.4285714285713,50.28571428571428,4769.714285714285,6031.428571428572
2026-01-10 20:40:49.520,1712.3265306122448,-1911.938775510204,43.244897959183675,4769.897959183673,6031.65306122449
2026-01-10 20:40:49.540,1712.938775510204,-1912.4489795918366,36.20408163265307,4770.081632653061,6031.877551020408
2026-01-10 20:40:49.560,1713.5510204081634,-1912.9591836734694,29.16326530612247,4770.265306122449,6032.102040816327
2026-01-10 20:40:49.580,1714.1632653061224,-1913.469387755102,22.122448979591866,4770.448979591837,6032.326530612245
2026-01-10 20:40:49.600,1714.7755102040817,-1913.9795918367347,15.081632653061263,4770.632653061224,6032.551020408163
2026-01-10 20:40:49.620,1715.3877551020407,-1914.4897959183672,8.040816326530603,4770.816326530612,6032.775510204082
2026-01-10 20:40:49.640,1716.0,-1915.0,1.0,4771.0,6033.0
2026-01-10 20:40:49.660,1758.1914893617022,-1914.531914893617,8.361702127659575,4770.553191489362,6032.489361702128
2026-01-10 20:40:49.680,1800.3829787234042,-1914.063829787234,15.72340425531915,4770.106382978724,6031.978723404255
2026-01-10 20:40:49.700,1842.5744680851064,-1913.595744680851,23.085106382978722,4769.659574468085,6031.468085106383
2026-01-10 20:40:49.720,1884.7659574468084,-1913.127659574468,30.4468085106383,4769.212765957447,6030.95744680851
2026-01-10 20:40:49.740,1926.9574468085107,-1912.659574468085,37.808510638297875,4768.765957446809,6030.446808510638
2026-01-10 20:40:49.760,1969.1489361702127,-1912.1914893617022,45.170212765957444,4768.31914893617,6029.936170212766
2026-01-10 20:40:49.780,2011.340425531915,-1911.723404255319,52.53191489361702,4767.872340425532,6029.425531914893
2026-01-10 20:40:49.800,2053.531914893617,-1911.2553191489362,59.8936170212766,4767.425531914893,6028.914893617021
2026-01-10 20:40:49.820,2095.723404255319,-1910.787234042553,67.25531914893617,4766.978723404255,6028.404255319149
2026-01-10 20:40:49.840,2137.9148936170213,-1910.3191489361702,74.61702127659575,4766.531914893617,6027.893617021276
2026-01-10 20:40:49.860,2180.1063829787236,-1909.8510638297873,81.97872340425532,4766.085106382979,6027.382978723404
2026-01-10 20:40:49.880,2222.2978723404253,-1909.3829787234042,89.34042553191489,4765.63829787234,6026.872340425532
2026-01-10 20:40:49.900,2264.4893617021276,-1908.9148936170213,96.70212765957447,4765.191489361702,6026.36170212766
2026-01-10 20:40:49.920,2306.68085106383,-1908.4468085106382,104.06382978723404,4764.744680851064,6025.851063829788
2026-01-10 20:40:49.940,2348.872340425532,-1907.9787234042553,111.42553191489363,4764.297872340426,6025.340425531915
2026-01-10 20:40:49.960,2391.0638297872338,-1907.5106382978724,118.7872340425532,4763.851063829788,6024.829787234043
2026-01-10 20:40:49.980,2433.255319148936,-1907.0425531914893,126.14893617021276,4763.404255319149,6024.31914893617
2026-01-10 20:40:50.000,2475.446808510638,-1906.5744680851064,133.51063829787233,4762.95744680851,6023.808510638298
2026-01-10 20:40:50.020,2517.6382978723404,-1906.1063829787233,140.87234042553192,4762.510638297872,6023.297872340426
2026-01-10 20:40:50.040,2559.8297872340427,-1905.6382978723404,148.2340425531915,4762.063829787234,6022.787234042553
2026-01-10 20:40:50.060,2602.021276595745,-1905.1702127659576,155.59574468085106,4761.617021276596,6022.276595744681
2026-01-10 20:40:50.080,2644.2127659574467,-1904.7021276595744,162.95744680851064,4761.170212765957,6021.765957446809
2026-01-10 20:40:50.100,2686.404255319149,-1904.2340425531916,170.31914893617022,4760.723404255319,6021.255319148936
2026-01-10 20:40:50.120,2728.595744680851,-1903.7659574468084,177.68085106382978,4760.276595744681,6020.744680851064
2026-01-10 20:40:50.140,2770.787234042553,-1903.2978723404256,185.04255319148936,4759.829787234043,6020.234042553191
2026-01-10 20:40:50.160,2812.978723404255,-1902.8297872340424,192.40425531914894,4759.382978723404,6019.723404255319
2026-01-10 20:40:50.180,2855.1702127659573,-1902.3617021276596,199.76595744680853,4758.936170212766,6019.212765957447
2026-01-10 20:40:50.200,2897.3617021276596,-1901.8936170212767,207.12765957446808,4758.489361702128,6018.702127659574
2026-01-10 20:40:50.220,2939.553191489362,-1901.4255319148936,214.48936170212767,4758.04255319149,6018.191489361702
2026-01-10 20:40:50.240,2981.744680851064,-1900.9574468085107,221.85106382978725,4757.595744680851,6017.68085106383
2026-01-10 20:40:50.260,3023.936170212766,-1900.4893617021276,229.2127659574468,4757.148936170212,6017.170212765957
2026-01-10 20:40:50.280,3066.127659574468,-1900.0212765957447,236.5744680851064,4756.702127659574,6016.659574468085
2026-01-10 20:40:50.300,3108.31914893617,-1899.5531914893618,243.93617021276597,4756.255319148936,6016.148936170212
2026-01-10 20:40:50.320,3150.510638297872,-1899.0851063829787,251.29787234042553,4755.808510638298,6015.63829787234
2026-01-10 20:40:50.340,3192.702127659574,-1898.6170212765958,258.6595744680851,4755.36170212766,6015.127659574468
2026-01-10 20:40:50.360,3234.8936170212764,-1898.1489361702127,266.02127659574467,4754.914893617021,6014.617021276596
2026-01-10 20:40:50.380,3277.0851063829787,-1897.6808510638298,273.3829787234043,4754.468085106383,6014.106382978724
2026-01-10 20:40:50.400,3319.276595744681,-1897.212765957447,280.74468085106383,4754.021276595745,6013.595744680851
2026-01-10 20:40:50.420,3361.468085106383,-1896.7446808510638,288.1063829787234,4753.574468085107,6013.085106382979
2026-01-10 20:40:50.440,3403.659574468085,-1896.276595744681,295.468085106383,4753.127659574468,6012.574468085107
2026-01-10 20:40:50.460,3445.851063829787,-1895.8085106382978,302.82978723404256,4752.68085106383,6012.063829787234
2026-01-10 20:40:50.480,3488.0425531914893,-1895.340425531915,310.1914893617021,4752.234042553191,6011.553191489362
2026-01-10 20:40:50.500,3530.234042553191,-1894.872340425532,317.5531914893617,4751.787234042553,6011.04255319149
2026-01-10 20:40:50.520,3572.4255319148933,-1894.404255319149,324.9148936170213,4751.340425531915,6010.531914893617
2026-01-10 20:40:50.540,3614.6170212765956,-1893.936170212766,332.27659574468083,4750.893617021276,6010.021276595745
2026-01-10 20:40:50.560,3656.808510638298,-1893.468085106383,339.63829787234044,4750.446808510638,6009.510638297872
2026-01-10 20:40:50.580,3699.0,-1893.0,347.0,4750.0,6009.0
2026-01-10 20:40:50.600,3698.9166666666665,-1892.0333333333333,346.31666666666666,4750.3,6008.981481481482
2026-01-10 20:40:50.620,3698.8333333333335,-1891.0666666666666,345.6333333333333,4750.6,6008.962962962963
2026-01-10 20:40:50.640,3698.75,-1890.1,344.95,4750.9,6008.944444444444
2026-01-10 20:40:50.660,3698.6666666666665,-1889.1333333333334,344.26666666666665,4751.2,6008.925925925926
2026-01-10 20:40:50.680,3698.5833333333335,-1888.1666666666667,343.5833333333333,4751.5,6008.907407407408
2026-01-10 20:40:50.700,3698.5,-1887.2,342.9,4751.8,6008.888888888889
2026-01-10 20:40:50.720,3698.4166666666665,-1886.2333333333333,342.21666666666664,4752.1,6008.87037037037
2026-01-10 20:40:50.740,3698.3333333333335,-1885.2666666666667,341.53333333333336,4752.4,6008.851851851852
2026-01-10 20:40:50.760,3698.25,-1884.3,340.85,4752.7,6008.833333333333
2026-01-10 20:40:50.780,3698.1666666666665,-1883.3333333333333,340.1666666666667,4753.0,6008.814814814815
2026-01-10 20:40:50.800,3698.0833333333335,-1882.3666666666666,339.48333333333335,4753.3,6008.7962962962965
2026-01-10 20:40:50.820,3698.0,-1881.4,338.8,4753.6,6008.777777777777
2026-01-10 20:40:50.840,3697.9166666666665,-1880.4333333333334,338.1166666666667,4753.9,6008.759259259259
2026-01-10 20:40:50.860,3697.8333333333335,-1879.4666666666667,337.43333333333334,4754.2,6008.740740740741
2026-01-10 20:40:50.880,3697.75,-1878.5,336.75,4754.5,6008.722222222223
2026-01-10 20:40:50.900,3697.6666666666665,-1877.5333333333333,336.06666666666666,4754.8,6008.7037037037035
2026-01-10 20:40:50.920,3697.5833333333335,-1876.5666666666666,335.3833333333333,4755.1,6008.685185185185
2026-01-10 20:40:50.940,3697.5,-1875.6,334.7,4755.4,6008.666666666667
2026-01-10 20:40:50.960,3697.4166666666665,-1874.6333333333334,334.01666666666665,4755.7,6008.648148148148
2026-01-10 20:40:50.980,3697.3333333333335,-1873.6666666666667,333.3333333333333,4756.0,6008.62962962963
2026-01-10 20:40:51.000,3697.25,-1872.7,332.65,4756.3,6008.611111111111
2026-01-10 20:40:51.020,3697.1666666666665,-1871.7333333333333,331.96666666666664,4756.6,6008.592592592592
2026-01-10 20:40:51.040,3697.0833333333335,-1870.7666666666667,331.28333333333336,4756.9,6008.574074074074
2026-01-10 20:40:51.060,3697.0,-1869.8,330.6,4757.2,6008.555555555556
2026-01-10 20:40:51.080,3696.9166666666665,-1868.8333333333333,329.9166666666667,4757.5,6008.537037037037
2026-01-10 20:40:51.100,3696.8333333333335,-1867.8666666666666,329.23333333333335,4757.8,6008.518518518518
2026-01-10 20:40:51.120,3696.75,-1866.9,328.55,4758.1,6008.5
2026-01-10 20:40:51.140,3696.6666666666665,-1865.9333333333334,327.8666666666667,4758.4,6008.481481481482
2026-01-10 20:40:51.160,3696.5833333333335,-1864.9666666666667,327.18333333333334,4758.7,6008.462962962963
2026-01-10 20:40:51.180,3696.5,-1864.0,326.5,4759.0,6008.444444444444
2026-01-10 20:40:51.200,3696.4166666666665,-1863.0333333333333,325.81666666666666,4759.3,6008.425925925926
2026-01-10 20:40:51.220,3696.3333333333335,-1862.0666666666666,325.1333333333333,4759.6,6008.407407407408
2026-01-10 20:40:51.240,3696.25,-1861.1,324.45,4759.9,6008.388888888889
2026-01-10 20:40:51.260,3696.1666666666665,-1860.1333333333334,323.76666666666665,4760.2,6008.37037037037
2026-01-10 20:40:51.280,3696.0833333333335,-1859.1666666666667,323.0833333333333,4760.5,6008.351851851852
2026-01-10 20:40:51.300,3696.0,-1858.2,322.4,4760.8,6008.333333333333
2026-01-10 20:40:51.320,3695.9166666666665,-1857.2333333333333,321.71666666666664,4761.1,6008.314814814815
2026-01-10 20:40:51.340,3695.8333333333335,-1856.2666666666667,321.0333333333333,4761.4,6008.2962962962965
2026-01-10 20:40:51.360,3695.75,-1855.3,320.35,4761.7,6008.277777777777
2026-01-10 20:40:51.380,3695.6666666666665,-1854.3333333333333,319.6666666666667,4762.0,6008.259259259259
2026-01-10 20:40:51.400,3695.5833333333335,-1853.3666666666666,318.98333333333335,4762.3,6008.240740740741
2026-01-10 20:40:51.420,3695.5,-1852.4,318.3,4762.6,6008.222222222223
2026-01-10 20:40:51.440,3695.4166666666665,-1851.4333333333334,317.6166666666667,4762.9,6008.2037037037035
2026-01-10 20:40:51.460,3695.3333333333335,-1850.4666666666667,316.93333333333334,4763.2,6008.185185185185
2026-01-10 20:40:51.480,3695.25,-1849.5,316.25,4763.5,6008.166666666667
2026-01-10 20:40:51.500,3695.1666666666665,-1848.5333333333333,315.56666666666666,4763.8,6008.148148148148
2026-01-10 20:40:51.520,3695.0833333333335,-1847.5666666666666,314.8833333333333,4764.1,6008.12962962963
2026-01-10 20:40:51.540,3695.0,-1846.6,314.2,4764.4,6008.111111111111
2026-01-10 20:40:51.560,3694.9166666666665,-1845.6333333333334,313.51666666666665,4764.7,6008.092592592592
2026-01-10 20:40:51.580,3694.8333333333335,-1844.6666666666667,312.8333333333333,4765.0,6008.074074074074
2026-01-10 20:40:51.600,3694.75,-1843.7,312.15,4765.3,6008.055555555556
2026-01-10 20:40:51.620,3694.6666666666665,-1842.7333333333333,311.4666666666667,4765.6,6008.037037037037
2026-01-10 20:40:51.640,3694.5833333333335,-1841.7666666666667,310.7833333333333,4765.9,6008.018518518518
2026-01-10 20:40:51.660,3694.5,-1840.8,310.1,4766.2,6008.0
2026-01-10 20:40:51.680,3694.4166666666665,-1839.8333333333333,309.4166666666667,4766.5,6008.458333333333
2026-01-10 20:40:51.700,3694.3333333333335,-1838.8666666666666,308.73333333333335,4766.8,6008.916666666667
2026-01-10 20:40:51.720,3694.25,-1837.9,308.05,4767.1,6009.375
2026-01-10 20:40:51.740,3694.1666666666665,-1836.9333333333334,307.3666666666667,4767.4,6009.833333333333
2026-01-10 20:40:51.760,3694.0833333333335,-1835.9666666666667,306.68333333333334,4767.7,6010.291666666667
2026-01-10 20:40:51.780,3694.0,-1835.0,306.0,4768.0,6010.75
2026-01-10 20:40:51.800,3694.095238095238,-1836.0238095238096,306.04761904761904,4768.261904761905,6011.208333333333
2026-01-10 20:40:51.820,3694.190476190476,-1837.047619047619,306.0952380952381,4768.523809523809,6011.666666666667
2026-01-10 20:40:51.840,3694.285714285714,-1838.0714285714287,306.14285714285717,4768.785714285715,6012.125
2026-01-10 20:40:51.860,3694.3809523809523,-1839.095238095238,306.1904761904762,4769.047619047619,6012.583333333333
2026-01-10 20:40:51.880,3694.4761904761904,-1840.1190476190477,306.23809523809524,4769.309523809524,6013.041666666667
2026-01-10 20:40:51.900,3694.5714285714284,-1841.142857142857,306.2857142857143,4769.571428571428,6013.5
2026-01-10 20:40:51.920,3694.6666666666665,-1842.1666666666667,306.3333333333333,4769.833333333333,6013.958333333333
2026-01-10 20:40:51.940,3694.7619047619046,-1843.1904761904761,306.3809523809524,4770.0952380952385,6014.416666666667
2026-01-10 20:40:51.960,3694.8571428571427,-1844.2142857142858,306.42857142857144,4770.357142857143,6014.875
2026-01-10 20:40:51.980,3694.9523809523807,-1845.2380952380952,306.4761904761905,4770.619047619048,6015.333333333333
2026-01-10 20:40:52.000,3695.0476190476193,-1846.2619047619048,306.5238095238095,4770.880952380952,6015.791666666667
2026-01-10 20:40:52.020,3695.1428571428573,-1847.2857142857142,306.57142857142856,4771.142857142857,6016.25
2026-01-10 20:40:52.040,3695.2380952380954,-1848.3095238095239,306.6190476190476,4771.4047619047615,6016.708333333333
2026-01-10 20:40:52.060,3695.3333333333335,-1849.3333333333333,306.6666666666667,4771.666666666667,6017.166666666667
2026-01-10 20:40:52.080,3695.4285714285716,-1850.357142857143,306.7142857142857,4771.928571428572,6017.625
2026-01-10 20:40:52.100,3695.5238095238096,-1851.3809523809523,306.76190476190476,4772.190476190476,6018.083333333333
2026-01-10 20:40:52.120,3695.6190476190477,-1852.404761904762,306.8095238095238,4772.452380952381,6018.541666666667
2026-01-10 20:40:52.140,3695.714285714286,-1853.4285714285713,306.85714285714283,4772.714285714285,6019.0
2026-01-10 20:40:52.160,3695.809523809524,-1854.452380952381,306.9047619047619,4772.976190476191,6019.458333333333
2026-01-10 20:40:52.180,3695.904761904762,-1855.4761904761904,306.95238095238096,4773.238095238095,6019.916666666667
2026-01-10 20:40:52.200,3696.0,-1856.5,307.0,4773.5,6020.375
2026-01-10 20:40:52.220,3696.095238095238,-1857.5238095238096,307.04761904761904,4773.761904761905,6020.833333333333
2026-01-10 20:40:52.240,3696.190476190476,-1858.547619047619,307.0952380952381,4774.023809523809,6021.291666666667
2026-01-10 20:40:52.260,3696.285714285714,-1859.5714285714287,307.14285714285717,4774.285714285715,6021.75
2026-01-10 20:40:52.280,3696.3809523809523,-1860.595238095238,307.1904761904762,4774.547619047619,6022.208333333333
2026-01-10 20:40:52.300,3696.4761904761904,-1861.6190476190477,307.23809523809524,4774.809523809524,6022.666666666667
2026-01-10 20:40:52.320,3696.5714285714284,-1862.642857142857,307.2857142857143,4775.071428571428,6023.125
2026-01-10 20:40:52.340,3696.6666666666665,-1863.6666666666667,307.3333333333333,4775.333333333333,6023.583333333333
2026-01-10 20:40:52.360,3696.7619047619046,-1864.6904761904761,307.3809523809524,4775.5952380952385,6024.041666666667
2026-01-10 20:40:52.380,3696.8571428571427,-1865.7142857142858,307.42857142857144,4775.857142857143,6024.5
2026-01-10 20:40:52.400,3696.9523809523807,-1866.7380952380952,307.4761904761905,4776.119047619048,6024.958333333333
2026-01-10 20:40:52.420,3697.0476190476193,-1867.7619047619048,307.5238095238095,4776.380952380952,6025.416666666667
2026-01-10 20:40:52.440,3697.1428571428573,-1868.7857142857142,307.57142857142856,4776.642857142857,6025.875
2026-01-10 20:40:52.460,3697.2380952380954,-1869.8095238095239,307.6190476190476,4776.9047619047615,6026.333333333333
2026-01-10 20:40:52.480,3697.3333333333335,-1870.8333333333333,307.6666666666667,4777.166666666667,6026.791666666667
2026-01-10 20:40:52.500,3697.4285714285716,-1871.857142857143,307.7142857142857,4777.428571428572,6027.25
2026-01-10 20:40:52.520,3697.5238095238096,-1872.8809523809523,307.76190476190476,4777.690476190476,6027.708333333333
2026-01-10 20:40:52.540,3697.6190476190477,-1873.904761904762,307.8095238095238,4777.952380952381,6028.166666666667
2026-01-10 20:40:52.560,3697.714285714286,-1874.9285714285713,307.85714285714283,4778.214285714285,6028.625
2026-01-10 20:40:52.580,3697.809523809524,-1875.952380952381,307.9047619047619,4778.476190476191,6029.083333333333
2026-01-10 20:40:52.600,3697.904761904762,-1876.9761904761904,307.95238095238096,4778.738095238095,6029.541666666667
2026-01-10 20:40:52.620,3698.0,-1878.0,308.0,4779.0,6030.0
2026-01-10 20:40:52.640,3656.5833333333335,-1878.8333333333333,264.2083333333333,4779.3125,6030.145833333333
2026-01-10 20:40:52.660,3615.1666666666665,-1879.6666666666667,220.41666666666669,4779.625,6030.291666666667
2026-01-10 20:40:52.680,3573.75,-1880.5,176.625,4779.9375,6030.4375
2026-01-10 20:40:52.700,3532.3333333333335,-1881.3333333333333,132.83333333333334,4780.25,6030.583333333333
2026-01-10 20:40:52.720,3490.9166666666665,-1882.1666666666667,89.04166666666669,4780.5625,6030.729166666667
2026-01-10 20:40:52.740,3449.5,-1883.0,45.25,4780.875,6030.875
2026-01-10 20:40:52.760,3408.0833333333335,-1883.8333333333333,1.4583333333333712,4781.1875,6031.020833333333
2026-01-10 20:40:52.780,3366.6666666666665,-1884.6666666666667,-42.333333333333314,4781.5,6031.166666666667
2026-01-10 20:40:52.800,3325.25,-1885.5,-86.125,4781.8125,6031.3125
2026-01-10 20:40:52.820,3283.8333333333335,-1886.3333333333333,-129.91666666666663,4782.125,6031.458333333333
2026-01-10 20:40:52.840,3242.4166666666665,-1887.1666666666667,-173.70833333333331,4782.4375,6031.604166666667
2026-01-10 20:40:52.860,3201.0,-1888.0,-217.5,4782.75,6031.75
2026-01-10 20:40:52.880,3159.5833333333335,-1888.8333333333333,-261.29166666666663,4783.0625,6031.895833333333
2026-01-10 20:40:52.900,3118.166666666667,-1889.6666666666667,-305.08333333333326,4783.375,6032.041666666667
2026-01-10 20:40:52.920,3076.75,-1890.5,-348.875,4783.6875,6032.1875
2026-01-10 20:40:52.940,3035.3333333333335,-1891.3333333333333,-392.66666666666663,4784.0,6032.333333333333
2026-01-10 20:40:52.960,2993.916666666667,-1892.1666666666667,-436.45833333333326,4784.3125,6032.479166666667
2026-01-10 20:40:52.980,2952.5,-1893.0,-480.25,4784.625,6032.625
2026-01-10 20:40:53.000,2911.0833333333335,-1893.8333333333333,-524.0416666666666,4784.9375,6032.770833333333
2026-01-10 20:40:53.020,2869.666666666667,-1894.6666666666667,-567.8333333333333,4785.25,6032.916666666667
2026-01-10 20:40:53.040,2828.25,-1895.5,-611.625,4785.5625,6033.0625
2026-01-10 20:40:53.060,2786.8333333333335,-1896.3333333333333,-655.4166666666666,4785.875,6033.208333333333
2026-01-10 20:40:53.080,2745.416666666667,-1897.1666666666667,-699.2083333333333,4786.1875,6033.354166666667
2026-01-10 20:40:53.100,2704.0,-1898.0,-743.0,4786.5,6033.5
2026-01-10 20:40:53.120,2662.5833333333335,-1898.8333333333333,-786.7916666666665,4786.8125,6033.645833333333
2026-01-10 20:40:53.140,2621.166666666667,-1899.6666666666667,-830.5833333333333,4787.125,6033.791666666667
2026-01-10 20:40:53.160,2579.75,-1900.5,-874.375,4787.4375,6033.9375
2026-01-10 20:40:53.180,2538.3333333333335,-1901.3333333333333,-918.1666666666665,4787.75,6034.083333333333
2026-01-10 20:40:53.200,2496.916666666667,-1902.1666666666667,-961.9583333333333,4788.0625,6034.229166666667
2026-01-10 20:40:53.220,2455.5,-1903.0,-1005.75,4788.375,6034.375
2026-01-10 20:40:53.240,2414.0833333333335,-1903.8333333333333,-1049.5416666666665,4788.6875,6034.520833333333
2026-01-10 20:40:53.260,2372.666666666667,-1904.6666666666667,-1093.3333333333333,4789.0,6034.666666666667
2026-01-10 20:40:53.280,2331.25,-1905.5,-1137.125,4789.3125,6034.8125
2026-01-10 20:40:53.300,2289.8333333333335,-1906.3333333333333,-1180.9166666666665,4789.625,6034.958333333333
2026-01-10 20:40:53.320,2248.416666666667,-1907.1666666666667,-1224.7083333333333,4789.9375,6035.104166666667
2026-01-10 20:40:53.340,2207.0,-1908.0,-1268.5,4790.25,6035.25
2026-01-10 20:40:53.360,2165.5833333333335,-1908.8333333333333,-1312.2916666666665,4790.5625,6035.395833333333
2026-01-10 20:40:53.380,2124.166666666667,-1909.6666666666667,-1356.0833333333333,4790.875,6035.541666666667
2026-01-10 20:40:53.400,2082.75,-1910.5,-1399.875,4791.1875,6035.6875
2026-01-10 20:40:53.420,2041.3333333333335,-1911.3333333333333,-1443.6666666666665,4791.5,6035.833333333333
2026-01-10 20:40:53.440,1999.9166666666667,-1912.1666666666667,-1487.4583333333333,4791.8125,6035.979166666667
2026-01-10 20:40:53.460,1958.5,-1913.0,-1531.25,4792.125,6036.125
2026-01-10 20:40:53.480,1917.0833333333335,-1913.8333333333333,-1575.0416666666665,4792.4375,6036.270833333333
2026-01-10 20:40:53.500,1875.6666666666667,-1914.6666666666667,-1618.8333333333333,4792.75,6036.416666666667
2026-01-10 20:40:53.520,1834.25,-1915.5,-1662.625,4793.0625,6036.5625
2026-01-10 20:40:53.540,1792.8333333333335,-1916.3333333333333,-1706.4166666666665,4793.375,6036.708333333333
2026-01-10 20:40:53.560,1751.4166666666667,-1917.1666666666667,-1750.208333333333,4793.6875,6036.854166666667
2026-01-10 20:40:53.580,1710.0,-1918.0,-1794.0,4794.0,6037.0
2026-01-10 20:40:53.600,1705.3090909090909,-1916.4363636363637,-1725.9454545454546,4794.818181818182,6036.6
2026-01-10 20:40:53.620,1700.6181818181817,-1914.8727272727272,-1657.8909090909092,4795.636363636364,6036.2
2026-01-10 20:40:53.640,1695.9272727272728,-1913.3090909090909,-1589.8363636363638,4796.454545454545,6035.8
2026-01-10 20:40:53.660,1691.2363636363636,-1911.7454545454545,-1521.7818181818182,4797.272727272727,6035.4
2026-01-10 20:40:53.680,1686.5454545454545,-1910.1818181818182,-1453.7272727272727,4798.090909090909,6035.0
2026-01-10 20:40:53.700,1681.8545454545454,-1908.6181818181817,-1385.6727272727273,4798.909090909091,6034.6
2026-01-10 20:40:53.720,1677.1636363636364,-1907.0545454545454,-1317.618181818182,4799.727272727273,6034.2
2026-01-10 20:40:53.740,1672.4727272727273,-1905.490909090909,-1249.5636363636363,4800.545454545455,6033.8
2026-01-10 20:40:53.760,1667.7818181818182,-1903.9272727272728,-1181.509090909091,4801.363636363636,6033.4
2026-01-10 20:40:53.780,1663.090909090909,-1902.3636363636363,-1113.4545454545455,4802.181818181818,6033.0
2026-01-10 20:40:53.800,1658.4,-1900.8,-1045.4,4803.0,6032.6
2026-01-10 20:40:53.820,1653.709090909091,-1899.2363636363636,-977.3454545454547,4803.818181818182,6032.2
2026-01-10 20:40:53.840,1649.0181818181818,-1897.6727272727273,-909.2909090909092,4804.636363636364,6031.8
2026-01-10 20:40:53.860,1644.3272727272727,-1896.1090909090908,-841.2363636363638,4805.454545454545,6031.4
2026-01-10 20:40:53.880,1639.6363636363637,-1894.5454545454545,-773.1818181818182,4806.272727272727,6031.0
2026-01-10 20:40:53.900,1634.9454545454546,-1892.9818181818182,-705.1272727272728,4807.090909090909,6030.6
2026-01-10 20:40:53.920,1630.2545454545455,-1891.418181818182,-637.0727272727274,4807.909090909091,6030.2
2026-01-10 20:40:53.940,1625.5636363636363,-1889.8545454545454,-569.018181818182,4808.727272727273,6029.8
2026-01-10 20:40:53.960,1620.8727272727274,-1888.290909090909,-500.9636363636364,4809.545454545455,6029.4
2026-01-10 20:40:53.980,1616.1818181818182,-1886.7272727272727,-432.909090909091,4810.363636363636,6029.0
2026-01-10 20:40:54.000,1611.490909090909,-1885.1636363636364,-364.8545454545456,4811.181818181818,6028.6
2026-01-10 20:40:54.020,1606.8,-1883.6,-296.8000000000002,4812.0,6028.2
2026-01-10 20:40:54.040,1602.1090909090908,-1882.0363636363636,-228.74545454545478,4812.818181818182,6027.8
2026-01-10 20:40:54.060,1597.418181818182,-1880.4727272727273,-160.69090909090937,4813.636363636364,6027.4
2026-01-10 20:40:54.080,1592.7272727272727,-1878.909090909091,-92.63636363636374,4814.454545454545,6027.0
2026-01-10 20:40:54.100,1588.0363636363636,-1877.3454545454545,-24.581818181818335,4815.272727272727,6026.6
2026-01-10 20:40:54.120,1583.3454545454545,-1875.7818181818182,43.47272727272707,4816.090909090909,6026.2
2026-01-10 20:40:54.140,1578.6545454545455,-1874.2181818181818,111.52727272727248,4816.909090909091,6025.8
2026-01-10 20:40:54.160,1573.9636363636364,-1872.6545454545455,179.58181818181788,4817.727272727273,6025.4
2026-01-10 20:40:54.180,1569.2727272727273,-1871.090909090909,247.6363636363635,4818.545454545455,6025.0
2026-01-10 20:40:54.200,1564.581818181818,-1869.5272727272727,315.6909090909089,4819.363636363636,6024.6
2026-01-10 20:40:54.220,1559.8909090909092,-1867.9636363636364,383.7454545454543,4820.181818181818,6024.2
2026-01-10 20:40:54.240,1555.2,-1866.4,451.7999999999997,4821.0,6023.8
2026-01-10 20:40:54.260,1550.509090909091,-1864.8363636363636,519.8545454545451,4821.818181818182,6023.4
2026-01-10 20:40:54.280,1545.8181818181818,-1863.2727272727273,587.9090909090905,4822.636363636364,6023.0
2026-01-10 20:40:54.300,1541.1272727272728,-1861.709090909091,655.9636363636359,4823.454545454545,6022.6
2026-01-10 20:40:54.320,1536.4363636363637,-1860.1454545454546,724.0181818181813,4824.272727272727,6022.2
2026-01-10 20:40:54.340,1531.7454545454545,-1858.581818181818,792.0727272727272,4825.090909090909,6021.8
2026-01-10 20:40:54.360,1527.0545454545454,-1857.0181818181818,860.1272727272726,4825.909090909091,6021.4
2026-01-10 20:40:54.380,1522.3636363636365,-1855.4545454545455,928.181818181818,4826.727272727273,6021.0
2026-01-10 20:40:54.400,1517.6727272727273,-1853.8909090909092,996.2363636363634,4827.545454545455,6020.6
2026-01-10 20:40:54.420,1512.9818181818182,-1852.3272727272727,1064.2909090909088,4828.363636363636,6020.2
2026-01-10 20:40:54.440,1508.290909090909,-1850.7636363636364,1132.3454545454542,4829.181818181818,6019.8
2026-01-10 20:40:54.460,1503.6,-1849.2,1200.3999999999996,4830.0,6019.4
2026-01-10 20:40:54.480,1498.909090909091,-1847.6363636363635,1268.454545454545,4830.818181818182,6019.0
2026-01-10 20:40:54.500,1494.2181818181818,-1846.0727272727272,1336.5090909090904,4831.636363636364,6018.6
2026-01-10 20:40:54.520,1489.5272727272727,-1844.509090909091,1404.5636363636359,4832.454545454545,6018.2
2026-01-10 20:40:54.540,1484.8363636363638,-1842.9454545454546,1472.6181818181813,4833.272727272727,6017.8
2026-01-10 20:40:54.560,1480.1454545454546,-1841.3818181818183,1540.6727272727271,4834.090909090909,6017.4
2026-01-10 20:40:54.580,1475.4545454545455,-1839.8181818181818,1608.7272727272725,4834.909090909091,6017.0
2026-01-10 20:40:54.600,1470.7636363636364,-1838.2545454545455,1676.781818181818,4835.727272727273,6016.6
2026-01-10 20:40:54.620,1466.0727272727272,-1836.6909090909091,1744.8363636363633,4836.545454545455,6016.2
2026-01-10 20:40:54.640,1461.3818181818183,-1835.1272727272726,1812.8909090909087,4837.363636363636,6015.8
2026-01-10 20:40:54.660,1456.6909090909091,-1833.5636363636363,1880.9454545454541,4838.181818181818,6015.4
2026-01-10 20:40:54.680,1452.0,-1832.0,1949.0,4839.0,6015.0
2026-01-10 20:40:54.700,1499.0,-1832.212765957447,1913.5744680851064,4838.106382978724,6014.936170212766
2026-01-10 20:40:54.720,1546.0,-1832.4255319148936,1878.1489361702127,4837.212765957447,6014.872340425532
2026-01-10 20:40:54.740,1593.0,-1832.6382978723404,1842.723404255319,4836.31914893617,6014.808510638298
2026-01-10 20:40:54.760,1640.0,-1832.8510638297873,1807.2978723404256,4835.425531914893,6014.744680851064
2026-01-10 20:40:54.780,1687.0,-1833.063829787234,1771.872340425532,4834.531914893617,6014.68085106383
2026-01-10 20:40:54.800,1734.0,-1833.276595744681,1736.4468085106382,4833.63829787234,6014.617021276596
2026-01-10 20:40:54.820,1781.0,-1833.4893617021276,1701.0212765957447,4832.744680851064,6014.553191489362
2026-01-10 20:40:54.840,1828.0,-1833.7021276595744,1665.595744680851,4831.851063829788,6014.489361702128
2026-01-10 20:40:54.860,1875.0,-1833.9148936170213,1630.1702127659573,4830.95744680851,6014.425531914893
2026-01-10 20:40:54.880,1922.0,-1834.127659574468,1594.7446808510638,4830.063829787234,6014.36170212766
2026-01-10 20:40:54.900,1969.0,-1834.340425531915,1559.3191489361702,4829.170212765957,6014.297872340426
2026-01-10 20:40:54.920,2016.0,-1834.5531914893618,1523.8936170212764,4828.276595744681,6014.234042553191
2026-01-10 20:40:54.940,2063.0,-1834.7659574468084,1488.468085106383,4827.382978723404,6014.170212765957
2026-01-10 20:40:54.960,2110.0,-1834.9787234042553,1453.0425531914893,4826.489361702128,6014.106382978724
2026-01-10 20:40:54.980,2157.0,-1835.1914893617022,1417.6170212765958,4825.595744680851,6014.04255319149
2026-01-10 20:40:55.000,2204.0,-1835.404255319149,1382.1914893617022,4824.702127659574,6013.978723404255
2026-01-10 20:40:55.020,2251.0,-1835.6170212765958,1346.7659574468084,4823.808510638298,6013.914893617021
2026-01-10 20:40:55.040,2298.0,-1835.8297872340424,1311.340425531915,4822.914893617021,6013.851063829788
2026-01-10 20:40:55.060,2345.0,-1836.0425531914893,1275.9148936170213,4822.021276595745,6013.787234042553
2026-01-10 20:40:55.080,2392.0,-1836.2553191489362,1240.4893617021276,4821.127659574468,6013.723404255319
2026-01-10 20:40:55.100,2439.0,-1836.468085106383,1205.063829787234,4820.234042553191,6013.659574468085
2026-01-10 20:40:55.120,2486.0,-1836.6808510638298,1169.6382978723404,4819.340425531915,6013.595744680851
2026-01-10 20:40:55.140,2533.0,-1836.8936170212767,1134.2127659574467,4818.446808510638,6013.531914893617
2026-01-10 20:40:55.160,2580.0,-1837.1063829787233,1098.787234042553,4817.553191489362,6013.468085106383
2026-01-10 20:40:55.180,2627.0,-1837.3191489361702,1063.3617021276596,4816.659574468085,6013.404255319149
2026-01-10 20:40:55.200,2674.0,-1837.531914893617,1027.9361702127658,4815.765957446809,6013.340425531915
2026-01-10 20:40:55.220,2721.0,-1837.7446808510638,992.5106382978723,4814.872340425532,6013.276595744681
2026-01-10 20:40:55.240,2768.0,-1837.9574468085107,957.0851063829787,4813.978723404255,6013.212765957447
2026-01-10 20:40:55.260,2815.0,-1838.1702127659576,921.6595744680851,4813.085106382979,6013.148936170212
2026-01-10 20:40:55.280,2862.0,-1838.3829787234042,886.2340425531916,4812.191489361702,6013.085106382979
2026-01-10 20:40:55.300,2909.0,-1838.595744680851,850.8085106382978,4811.297872340426,6013.021276595745
2026-01-10 20:40:55.320,2956.0,-1838.8085106382978,815.3829787234042,4810.404255319149,6012.95744680851
2026-01-10 20:40:55.340,3003.0,-1839.0212765957447,779.9574468085107,4809.510638297872,6012.893617021276
2026-01-10 20:40:55.360,3050.0,-1839.2340425531916,744.5319148936169,4808.617021276596,6012.829787234043
2026-01-10 20:40:55.380,3097.0,-1839.4468085106382,709.1063829787233,4807.723404255319,6012.765957446809
2026-01-10 20:40:55.400,3144.0,-1839.659574468085,673.6808510638298,4806.829787234043,6012.702127659574
2026-01-10 20:40:55.420,3191.0,-1839.872340425532,638.2553191489362,4805.936170212766,6012.63829787234
2026-01-10 20:40:55.440,3238.0,-1840.0851063829787,602.8297872340424,4805.04255319149,6012.574468085107
2026-01-10 20:40:55.460,3285.0,-1840.2978723404256,567.4042553191489,4804.148936170212,6012.510638297872
2026-01-10 20:40:55.480,3332.0,-1840.5106382978724,531.9787234042553,4803.255319148936,6012.446808510638
2026-01-10 20:40:55.500,3379.0,-1840.723404255319,496.55319148936155,4802.36170212766,6012.382978723404
2026-01-10 20:40:55.520,3426.0,-1840.936170212766,461.127659574468,4801.468085106383,6012.31914893617
2026-01-10 20:40:55.540,3473.0,-1841.1489361702127,425.70212765957444,4800.574468085107,6012.255319148936
2026-01-10 20:40:55.560,3520.0,-1841.3617021276596,390.2765957446809,4799.68085106383,6012.191489361702
2026-01-10 20:40:55.580,3567.0,-1841.5744680851064,354.8510638297871,4798.787234042553,6012.127659574468
2026-01-10 20:40:55.600,3614.0,-1841.787234042553,319.42553191489355,4797.893617021276,6012.063829787234
2026-01-10 20:40:55.620,3661.0,-1842.0,284.0,4797.0,6012.0
2026-01-10 20:40:55.640,3660.6458333333335,-1797.1041666666667,283.625,4797.4375,6012.541666666667
2026-01-10 20:40:55.660,3660.2916666666665,-1752.2083333333333,283.25,4797.875,6013.083333333333
2026-01-10 20:40:55.680,3659.9375,-1707.3125,282.875,4798.3125,6013.625
2026-01-10 20:40:55.700,3659.5833333333335,-1662.4166666666667,282.5,4798.75,6014.166666666667
2026-01-10 20:40:55.720,3659.2291666666665,-1617.5208333333333,282.125,4799.1875,6014.708333333333
2026-01-10 20:40:55.740,3658.875,-1572.625,281.75,4799.625,6015.25
2026-01-10 20:40:55.760,3658.5208333333335,-1527.7291666666665,281.375,4800.0625,6015.791666666667
2026-01-10 20:40:55.780,3658.1666666666665,-1482.8333333333333,281.0,4800.5,6016.333333333333
2026-01-10 20:40:55.800,3657.8125,-1437.9375,280.625,4800.9375,6016.875
2026-01-10 20:40:55.820,3657.4583333333335,-1393.0416666666665,280.25,4801.375,6017.416666666667
2026-01-10 20:40:55.840,3657.1041666666665,-1348.1458333333333,279.875,4801.8125,6017.958333333333
2026-01-10 20:40:55.860,3656.75,-1303.25,279.5,4802.25,6018.5
2026-01-10 20:40:55.880,3656.3958333333335,-1258.3541666666665,279.125,4802.6875,6019.041666666667
2026-01-10 20:40:55.900,3656.0416666666665,-1213.4583333333333,278.75,4803.125,6019.583333333333
2026-01-10 20:40:55.920,3655.6875,-1168.5625,278.375,4803.5625,6020.125
2026-01-10 20:40:55.940,3655.3333333333335,-1123.6666666666665,278.0,4804.0,6020.666666666667
2026-01-10 20:40:55.960,3654.9791666666665,-1078.7708333333333,277.625,4804.4375,6021.208333333333
2026-01-10 20:40:55.980,3654.625,-1033.875,277.25,4804.875,6021.75
2026-01-10 20:40:56.000,3654.2708333333335,-988.9791666666666,276.875,4805.3125,6022.291666666667
2026-01-10 20:40:56.020,3653.9166666666665,-944.0833333333333,276.5,4805.75,6022.833333333333
2026-01-10 20:40:56.040,3653.5625,-899.1875,276.125,4806.1875,6023.375
2026-01-10 20:40:56.060,3653.2083333333335,-854.2916666666666,275.75,4806.625,6023.916666666667
2026-01-10 20:40:56.080,3652.8541666666665,-809.3958333333333,275.375,4807.0625,6024.458333333333
2026-01-10 20:40:56.100,3652.5,-764.5,275.0,4807.5,6025.0
2026-01-10 20:40:56.120,3652.1458333333335,-719.6041666666665,274.625,4807.9375,6025.541666666667
2026-01-10 20:40:56.140,3651.7916666666665,-674.7083333333333,274.25,4808.375,6026.083333333333
2026-01-10 20:40:56.160,3651.4375,-629.8125,273.875,4808.8125,6026.625
2026-01-10 20:40:56.180,3651.0833333333335,-584.9166666666665,273.5,4809.25,6027.166666666667
2026-01-10 20:40:56.200,3650.7291666666665,-540.0208333333333,273.125,4809.6875,6027.708333333333
2026-01-10 20:40:56.220,3650.375,-495.125,272.75,4810.125,6028.25
2026-01-10 20:40:56.240,3650.0208333333335,-450.2291666666665,272.375,4810.5625,6028.791666666667
2026-01-10 20:40:56.260,3649.6666666666665,-405.33333333333326,272.0,4811.0,6029.333333333333
2026-01-10 20:40:56.280,3649.3125,-360.4375,271.625,4811.4375,6029.875
2026-01-10 20:40:56.300,3648.9583333333335,-315.5416666666665,271.25,4811.875,6030.416666666667
2026-01-10 20:40:56.320,3648.6041666666665,-270.64583333333326,270.875,4812.3125,6030.958333333333
2026-01-10 20:40:56.340,3648.25,-225.75,270.5,4812.75,6031.5
2026-01-10 20:40:56.360,3647.8958333333335,-180.85416666666652,270.125,4813.1875,6032.041666666667
2026-01-10 20:40:56.380,3647.5416666666665,-135.95833333333326,269.75,4813.625,6032.583333333333
2026-01-10 20:40:56.400,3647.1875,-91.0625,269.375,4814.0625,6033.125
2026-01-10 20:40:56.420,3646.8333333333335,-46.166666666666515,269.0,4814.5,6033.666666666667
2026-01-10 20:40:56.440,3646.4791666666665,-1.2708333333332575,268.625,4814.9375,6034.208333333333
2026-01-10 20:40:56.460,3646.125,43.625,268.25,4815.375,6034.75
2026-01-10 20:40:56.480,3645.7708333333335,88.52083333333348,267.875,4815.8125,6035.291666666667
2026-01-10 20:40:56.500,3645.4166666666665,133.41666666666674,267.5,4816.25,6035.833333333333
2026-01-10 20:40:56.520,3645.0625,178.3125,267.125,4816.6875,6036.375
2026-01-10 20:40:56.540,3644.7083333333335,223.20833333333348,266.75,4817.125,6036.916666666667
2026-01-10 20:40:56.560,3644.3541666666665,268.10416666666697,266.375,4817.5625,6037.458333333333
2026-01-10 20:40:56.580,3644.0,313.0,266.0,4818.0,6038.0
2026-01-10 20:40:56.600,3644.9242424242425,280.0909090909091,266.04545454545456,4817.966666666666,6037.966666666666
2026-01-10 20:40:56.620,3645.848484848485,247.1818181818182,266.09090909090907,4817.933333333333,6037.933333333333
2026-01-10 20:40:56.640,3646.7727272727275,214.27272727272728,266.1363636363636,4817.9,6037.9
2026-01-10 20:40:56.660,3647.6969696969695,181.36363636363637,266.1818181818182,4817.866666666667,6037.866666666667
2026-01-10 20:40:56.680,3648.621212121212,148.45454545454547,266.22727272727275,4817.833333333333,6037.833333333333
2026-01-10 20:40:56.700,3649.5454545454545,115.54545454545456,266.27272727272725,4817.8,6037.8
2026-01-10 20:40:56.720,3650.469696969697,82.63636363636365,266.3181818181818,4817.766666666666,6037.766666666666
2026-01-10 20:40:56.740,3651.3939393939395,49.72727272727275,266.3636363636364,4817.733333333334,6037.733333333334
2026-01-10 20:40:56.760,3652.318181818182,16.81818181818187,266.40909090909093,4817.7,6037.7
2026-01-10 20:40:56.780,3653.242424242424,-16.090909090909065,266.45454545454544,4817.666666666667,6037.666666666667
2026-01-10 20:40:56.800,3654.1666666666665,-49.0,266.5,4817.633333333333,6037.633333333333
2026-01-10 20:40:56.820,3655.090909090909,-81.90909090909088,266.54545454545456,4817.6,6037.6
2026-01-10 20:40:56.840,3656.0151515151515,-114.81818181818176,266.59090909090907,4817.566666666667,6037.566666666667
2026-01-10 20:40:56.860,3656.939393939394,-147.7272727272727,266.6363636363636,4817.533333333334,6037.533333333334
2026-01-10 20:40:56.880,3657.8636363636365,-180.63636363636363,266.6818181818182,4817.5,6037.5
2026-01-10 20:40:56.900,3658.787878787879,-213.5454545454545,266.72727272727275,4817.466666666666,6037.466666666666
2026-01-10 20:40:56.920,3659.712121212121,-246.45454545454538,266.77272727272725,4817.433333333333,6037.433333333333
2026-01-10 20:40:56.940,3660.6363636363635,-279.36363636363626,266.8181818181818,4817.4,6037.4
2026-01-10 20:40:56.960,3661.560606060606,-312.27272727272725,266.8636363636364,4817.366666666667,6037.366666666667
2026-01-10 20:40:56.980,3662.4848484848485,-345.18181818181813,266.90909090909093,4817.333333333333,6037.333333333333
2026-01-10 20:40:57.000,3663.409090909091,-378.090909090909,266.95454545454544,4817.3,6037.3
2026-01-10 20:40:57.020,3664.3333333333335,-411.0,267.0,4817.266666666666,6037.266666666666
2026-01-10 20:40:57.040,3665.257575757576,-443.9090909090909,267.04545454545456,4817.233333333334,6037.233333333334
2026-01-10 20:40:57.060,3666.181818181818,-476.81818181818176,267.09090909090907,4817.2,6037.2
2026-01-10 20:40:57.080,3667.1060606060605,-509.72727272727263,267.1363636363636,4817.166666666667,6037.166666666667
2026-01-10 20:40:57.100,3668.030303030303,-542.6363636363635,267.1818181818182,4817.133333333333,6037.133333333333
2026-01-10 20:40:57.120,3668.9545454545455,-575.5454545454545,267.22727272727275,4817.1,6037.1
2026-01-10 20:40:57.140,3669.878787878788,-608.4545454545454,267.27272727272725,4817.066666666667,6037.066666666667
2026-01-10 20:40:57.160,3670.8030303030305,-641.3636363636363,267.3181818181818,4817.033333333334,6037.033333333334
2026-01-10 20:40:57.180,3671.7272727272725,-674.2727272727273,267.3636363636364,4817.0,6037.0
2026-01-10 20:40:57.200,3672.651515151515,-707.1818181818181,267.40909090909093,4816.966666666666,6036.966666666666
2026-01-10 20:40:57.220,3673.5757575757575,-740.090909090909,267.45454545454544,4816.933333333333,6036.933333333333
2026-01-10 20:40:57.240,3674.5,-773.0,267.5,4816.9,6036.9
2026-01-10 20:40:57.260,3675.4242424242425,-805.9090909090908,267.54545454545456,4816.866666666667,6036.866666666667
2026-01-10 20:40:57.280,3676.348484848485,-838.8181818181818,267.59090909090907,4816.833333333333,6036.833333333333
2026-01-10 20:40:57.300,3677.2727272727275,-871.7272727272725,267.6363636363636,4816.8,6036.8
2026-01-10 20:40:57.320,3678.1969696969695,-904.6363636363635,267.6818181818182,4816.766666666666,6036.766666666666
2026-01-10 20:40:57.340,3679.121212121212,-937.5454545454545,267.72727272727275,4816.733333333334,6036.733333333334
2026-01-10 20:40:57.360,3680.0454545454545,-970.4545454545453,267.77272727272725,4816.7,6036.7
2026-01-10 20:40:57.380,3680.969696969697,-1003.3636363636363,267.8181818181818,4816.666666666667,6036.666666666667
2026-01-10 20:40:57.400,3681.8939393939395,-1036.2727272727273,267.8636363636364,4816.633333333333,6036.633333333333
2026-01-10 20:40:57.420,3682.818181818182,-1069.181818181818,267.90909090909093,4816.6,6036.6
2026-01-10 20:40:57.440,3683.742424242424,-1102.090909090909,267.95454545454544,4816.566666666667,6036.566666666667
2026-01-10 20:40:57.460,3684.6666666666665,-1135.0,268.0,4816.533333333334,6036.533333333334
2026-01-10 20:40:57.480,3685.590909090909,-1167.9090909090908,268.04545454545456,4816.5,6036.5
2026-01-10 20:40:57.500,3686.5151515151515,-1200.8181818181818,268.09090909090907,4816.466666666666,6036.466666666666
2026-01-10 20:40:57.520,3687.439393939394,-1233.7272727272725,268.1363636363636,4816.433333333333,6036.433333333333
2026-01-10 20:40:57.540,3688.3636363636365,-1266.6363636363635,268.1818181818182,4816.4,6036.4
2026-01-10 20:40:57.560,3689.287878787879,-1299.5454545454545,268.22727272727275,4816.366666666667,6036.366666666667
2026-01-10 20:40:57.580,3690.212121212121,-1332.4545454545453,268.27272727272725,4816.333333333333,6036.333333333333
2026-01-10 20:40:57.600,3691.1363636363635,-1365.3636363636363,268.3181818181818,4816.3,6036.3
2026-01-10 20:40:57.620,3692.060606060606,-1398.272727272727,268.3636363636364,4816.266666666666,6036.266666666666
2026-01-10 20:40:57.640,3692.9848484848485,-1431.181818181818,268.40909090909093,4816.233333333334,6036.233333333334
2026-01-10 20:40:57.660,3693.909090909091,-1464.090909090909,268.45454545454544,4816.2,6036.2
2026-01-10 20:40:57.680,3694.8333333333335,-1496.9999999999998,268.5,4816.166666666667,6036.166666666667
2026-01-10 20:40:57.700,3695.757575757576,-1529.9090909090908,268.54545454545456,4816.133333333333,6036.133333333333
2026-01-10 20:40:57.720,3696.681818181818,-1562.8181818181818,268.59090909090907,4816.1,6036.1
2026-01-10 20:40:57.740,3697.6060606060605,-1595.7272727272725,268.6363636363636,4816.066666666667,6036.066666666667
2026-01-10 20:40:57.760,3698.530303030303,-1628.6363636363635,268.6818181818182,4816.033333333334,6036.033333333334
2026-01-10 20:40:57.780,3699.4545454545455,-1661.5454545454545,268.72727272727275,4816.0,6036.0
2026-01-10 20:40:57.800,3700.378787878788,-1694.4545454545453,268.77272727272725,4815.928571428572,6035.523809523809
2026-01-10 20:40:57.820,3701.3030303030305,-1727.3636363636363,268.8181818181818,4815.857142857143,6035.047619047619
2026-01-10 20:40:57.840,3702.2272727272725,-1760.272727272727,268.8636363636364,4815.785714285715,6034.571428571428
2026-01-10 20:40:57.860,3703.151515151515,-1793.181818181818,268.90909090909093,4815.714285714285,6034.0952380952385
2026-01-10 20:40:57.880,3704.0757575757575,-1826.090909090909,268.95454545454544,4815.642857142857,6033.619047619048
2026-01-10 20:40:57.900,3705.0,-1859.0,269.0,4815.571428571428,6033.142857142857
2026-01-10 20:40:57.920,3651.777777777778,-1805.111111111111,208.36111111111111,4815.5,6032.666666666667
2026-01-10 20:40:57.940,3598.5555555555557,-1751.2222222222222,147.72222222222223,4815.428571428572,6032.190476190476
2026-01-10 20:40:57.960,3545.3333333333335,-1697.3333333333333,87.08333333333334,4815.357142857143,6031.714285714285
2026-01-10 20:40:57.980,3492.1111111111113,-1643.4444444444443,26.444444444444457,4815.285714285715,6031.238095238095
2026-01-10 20:40:58.000,3438.8888888888887,-1589.5555555555557,-34.19444444444446,4815.214285714285,6030.761904761905
2026-01-10 20:40:58.020,3385.6666666666665,-1535.6666666666667,-94.83333333333331,4815.142857142857,6030.285714285715
2026-01-10 20:40:58.040,3332.4444444444443,-1481.7777777777778,-155.47222222222217,4815.071428571428,6029.809523809524
2026-01-10 20:40:58.060,3279.222222222222,-1427.888888888889,-216.1111111111111,4815.0,6029.333333333333
2026-01-10 20:40:58.080,3226.0,-1374.0,-276.75,4814.928571428572,6028.857142857143
2026-01-10 20:40:58.100,3172.777777777778,-1320.111111111111,-337.3888888888889,4814.857142857143,6028.380952380952
2026-01-10 20:40:58.120,3119.5555555555557,-1266.2222222222222,-398.0277777777777,4814.785714285715,6027.9047619047615
2026-01-10 20:40:58.140,3066.3333333333335,-1212.3333333333335,-458.66666666666663,4814.714285714285,6027.428571428572
2026-01-10 20:40:58.160,3013.1111111111113,-1158.4444444444443,-519.3055555555555,4814.642857142857,6026.952380952381
2026-01-10 20:40:58.180,2959.8888888888887,-1104.5555555555557,-579.9444444444443,4814.571428571428,6026.476190476191
2026-01-10 20:40:58.200,2906.6666666666665,-1050.6666666666667,-640.5833333333333,4814.5,6026.0
2026-01-10 20:40:58.220,2853.4444444444443,-996.7777777777778,-701.2222222222222,4814.428571428572,6025.523809523809
2026-01-10 20:40:58.240,2800.222222222222,-942.8888888888889,-761.8611111111111,4814.357142857143,6025.047619047619
2026-01-10 20:40:58.260,2747.0,-889.0,-822.5,4814.285714285715,6024.571428571428
2026-01-10 20:40:58.280,2693.777777777778,-835.1111111111112,-883.1388888888889,4814.214285714285,6024.0952380952385
